acc_sum,block,block_c,change,condition,correct,correct_response,datetime,endtime,face,project,response,response_time,row_sel,session_number,start_end,starttime,subject_id,task,task_vers,trial
0,prac,1,,1-Back,,,Fri Sep 06 2024 09:32:27 GMT-0500 (Central Daylight Time),,097_m_f_n_a.png,O,space,17538,1,1,,,7018,NNB,B,0
1,prac,1,0.0,1-Back,1,m,Fri Sep 06 2024 09:32:27 GMT-0500 (Central Daylight Time),180318.70000004768,152_y_f_n_a.png,O,m,669,2,1,1540.0,178778.70000004768,7018,NNB,B,1
2,prac,1,1.0,1-Back,1,z,Fri Sep 06 2024 09:32:27 GMT-0500 (Central Daylight Time),181934.60000002384,152_y_f_n_a.png,O,z,836,3,1,1610.1000000238419,180324.5,7018,NNB,B,2
3,prac,1,0.0,1-Back,1,m,Fri Sep 06 2024 09:32:27 GMT-0500 (Central Daylight Time),183500.70000004768,176_o_m_n_a.png,O,m,669,4,1,1557.8999999761581,181942.80000007153,7018,NNB,B,3
4,prac,1,0.0,1-Back,1,m,Fri Sep 06 2024 09:32:27 GMT-0500 (Central Daylight Time),185333.40000009537,126_m_m_n_a.png,O,m,964,5,1,1827.2000000476837,183506.20000004768,7018,NNB,B,4
5,prac,1,1.0,1-Back,1,z,Fri Sep 06 2024 09:32:27 GMT-0500 (Central Daylight Time),186866.20000004768,126_m_m_n_a.png,O,z,751,6,1,1527.7000000476837,185338.5,7018,NNB,B,5
6,prac,1,0.0,1-Back,1,m,Fri Sep 06 2024 09:32:27 GMT-0500 (Central Daylight Time),188465.80000007153,086_o_f_n_a.png,O,m,705,7,1,1593.8999999761581,186871.90000009537,7018,NNB,B,6
7,prac,1,0.0,1-Back,1,m,Fri Sep 06 2024 09:32:27 GMT-0500 (Central Daylight Time),189915.5,178_m_m_n_a.png,O,m,581,8,1,1444.3999999761581,188471.10000002384,7018,NNB,B,7
8,prac,1,0.0,1-Back,1,m,Fri Sep 06 2024 09:32:27 GMT-0500 (Central Daylight Time),191379.10000002384,097_m_f_n_a.png,O,m,624,9,1,1457.8999999761581,189921.20000004768,7018,NNB,B,8
9,prac,1,1.0,1-Back,1,z,Fri Sep 06 2024 09:32:27 GMT-0500 (Central Daylight Time),192814.5,097_m_f_n_a.png,O,z,647,10,1,1429.1999999284744,191385.30000007153,7018,NNB,B,9
10,prac,1,0.0,1-Back,1,m,Fri Sep 06 2024 09:32:27 GMT-0500 (Central Daylight Time),194164.0,176_o_m_n_a.png,O,m,573,11,1,1343.7999999523163,192820.20000004768,7018,NNB,B,10
11,prac,1,0.0,1-Back,1,m,Fri Sep 06 2024 09:32:27 GMT-0500 (Central Daylight Time),195663.70000004768,173_y_f_n_a.png,O,m,623,12,1,1493.7999999523163,194169.90000009537,7018,NNB,B,11
0,test,1,0.0,1-Back,,,Fri Sep 06 2024 09:32:27 GMT-0500 (Central Daylight Time),195663.70000004768,152_y_f_n_a.png,O,space,23146,1,1,1493.7999999523163,194169.90000009537,7018,NNB,B,0
1,test,1,0.0,1-Back,1,m,Fri Sep 06 2024 09:32:27 GMT-0500 (Central Daylight Time),232202.10000002384,029_m_f_n_a.png,O,m,767,2,1,1811.3999999761581,230390.70000004768,7018,NNB,B,1
2,test,1,0.0,1-Back,1,m,Fri Sep 06 2024 09:32:27 GMT-0500 (Central Daylight Time),233834.90000009537,173_y_f_n_a.png,O,m,591,3,1,1629.3000000715256,232205.60000002384,7018,NNB,B,2
3,test,1,1.0,1-Back,1,z,Fri Sep 06 2024 09:32:27 GMT-0500 (Central Daylight Time),235334.40000009537,173_y_f_n_a.png,O,z,454,4,1,1495.3000000715256,233839.10000002384,7018,NNB,B,3
4,test,1,0.0,1-Back,1,m,Fri Sep 06 2024 09:32:27 GMT-0500 (Central Daylight Time),237200.60000002384,029_m_f_n_a.png,O,m,843,5,1,1862.1000000238419,235338.5,7018,NNB,B,4
5,test,1,0.0,1-Back,1,m,Fri Sep 06 2024 09:32:27 GMT-0500 (Central Daylight Time),238766.70000004768,176_o_m_n_a.png,O,m,545,6,1,1562.1000000238419,237204.60000002384,7018,NNB,B,5
6,test,1,1.0,1-Back,1,z,Fri Sep 06 2024 09:32:27 GMT-0500 (Central Daylight Time),240282.70000004768,176_o_m_n_a.png,O,z,498,7,1,1512.6000000238419,238770.10000002384,7018,NNB,B,6
7,test,1,0.0,1-Back,1,m,Fri Sep 06 2024 09:32:27 GMT-0500 (Central Daylight Time),241932.30000007153,126_m_m_n_a.png,O,m,631,8,1,1646.3999999761581,240285.90000009537,7018,NNB,B,7
8,test,1,0.0,1-Back,1,m,Fri Sep 06 2024 09:32:27 GMT-0500 (Central Daylight Time),243498.30000007153,086_o_f_n_a.png,O,m,549,9,1,1562.0,241936.30000007153,7018,NNB,B,8
9,test,1,0.0,1-Back,1,m,Fri Sep 06 2024 09:32:27 GMT-0500 (Central Daylight Time),245231.20000004768,126_m_m_n_a.png,O,m,711,10,1,1729.3999999761581,243501.80000007153,7018,NNB,B,9
10,test,1,0.0,1-Back,1,m,Fri Sep 06 2024 09:32:27 GMT-0500 (Central Daylight Time),246797.5,153_y_m_n_a.png,O,m,546,11,1,1562.7999999523163,245234.70000004768,7018,NNB,B,10
11,test,1,1.0,1-Back,1,z,Fri Sep 06 2024 09:32:27 GMT-0500 (Central Daylight Time),248463.70000004768,153_y_m_n_a.png,O,z,644,12,1,1662.2000000476837,246801.5,7018,NNB,B,11
12,test,1,0.0,1-Back,1,m,Fri Sep 06 2024 09:32:27 GMT-0500 (Central Daylight Time),250012.90000009537,110_o_f_n_a.png,O,m,530,13,1,1545.4000000953674,248467.5,7018,NNB,B,12
13,test,1,1.0,1-Back,1,z,Fri Sep 06 2024 09:32:27 GMT-0500 (Central Daylight Time),251679.20000004768,110_o_f_n_a.png,O,z,635,14,1,1661.8999999761581,250017.30000007153,7018,NNB,B,13
14,test,1,0.0,1-Back,1,m,Fri Sep 06 2024 09:32:27 GMT-0500 (Central Daylight Time),253278.60000002384,013_y_m_n_a.png,O,m,570,15,1,1595.5,251683.10000002384,7018,NNB,B,14
15,test,1,0.0,1-Back,1,m,Fri Sep 06 2024 09:32:27 GMT-0500 (Central Daylight Time),254961.60000002384,097_m_f_n_a.png,O,m,659,16,1,1678.8999999761581,253282.70000004768,7018,NNB,B,15
16,test,1,0.0,1-Back,1,m,Fri Sep 06 2024 09:32:27 GMT-0500 (Central Daylight Time),256794.40000009537,065_o_m_n_a.png,O,m,789,17,1,1829.4000000953674,254965.0,7018,NNB,B,16
17,test,1,0.0,1-Back,1,m,Fri Sep 06 2024 09:32:27 GMT-0500 (Central Daylight Time),258443.70000004768,097_m_f_n_a.png,O,m,614,18,1,1645.6000000238419,256798.10000002384,7018,NNB,B,17
0,test,2,0.0,1-Back,,,Fri Sep 06 2024 09:32:27 GMT-0500 (Central Daylight Time),258443.70000004768,126_m_m_n_a.png,O,space,2725,1,1,1645.6000000238419,256798.10000002384,7018,NNB,B,0
1,test,2,0.0,1-Back,1,m,Fri Sep 06 2024 09:32:27 GMT-0500 (Central Daylight Time),264942.0,029_m_f_n_a.png,O,m,721,2,1,1745.7999999523163,263196.2000000477,7018,NNB,B,1
2,test,2,1.0,1-Back,1,z,Fri Sep 06 2024 09:32:27 GMT-0500 (Central Daylight Time),266591.10000002384,029_m_f_n_a.png,O,z,628,3,1,1645.2999999523163,264945.8000000715,7018,NNB,B,2
3,test,2,0.0,1-Back,1,m,Fri Sep 06 2024 09:32:27 GMT-0500 (Central Daylight Time),268240.60000002384,126_m_m_n_a.png,O,m,617,4,1,1645.7999999523163,266594.8000000715,7018,NNB,B,3
4,test,2,0.0,1-Back,1,m,Fri Sep 06 2024 09:32:27 GMT-0500 (Central Daylight Time),269856.8000000715,153_y_m_n_a.png,O,m,584,5,1,1612.2000000476837,268244.60000002384,7018,NNB,B,4
5,test,2,0.0,1-Back,1,m,Fri Sep 06 2024 09:32:27 GMT-0500 (Central Daylight Time),271739.5,152_y_f_n_a.png,O,m,839,6,1,1879.3999999761581,269860.10000002384,7018,NNB,B,5
6,test,2,1.0,1-Back,1,z,Fri Sep 06 2024 09:32:27 GMT-0500 (Central Daylight Time),273322.2000000477,152_y_f_n_a.png,O,z,548,7,1,1579.5,271742.7000000477,7018,NNB,B,6
7,test,2,0.0,1-Back,1,m,Fri Sep 06 2024 09:32:27 GMT-0500 (Central Daylight Time),274921.90000009537,153_y_m_n_a.png,O,m,559,8,1,1596.2000000476837,273325.7000000477,7018,NNB,B,7
8,test,2,0.0,1-Back,1,m,Fri Sep 06 2024 09:32:27 GMT-0500 (Central Daylight Time),276487.90000009537,110_o_f_n_a.png,O,m,535,9,1,1562.0,274925.90000009537,7018,NNB,B,8
9,test,2,0.0,1-Back,1,m,Fri Sep 06 2024 09:32:27 GMT-0500 (Central Daylight Time),278087.8000000715,178_m_m_n_a.png,O,m,569,10,1,1596.3000000715256,276491.5,7018,NNB,B,9
10,test,2,1.0,1-Back,1,z,Fri Sep 06 2024 09:32:27 GMT-0500 (Central Daylight Time),279670.40000009537,178_m_m_n_a.png,O,z,561,11,1,1578.7000000476837,278091.7000000477,7018,NNB,B,10
11,test,2,0.0,1-Back,1,m,Fri Sep 06 2024 09:32:27 GMT-0500 (Central Daylight Time),281303.10000002384,110_o_f_n_a.png,O,m,602,12,1,1628.6999999284744,279674.40000009537,7018,NNB,B,11
12,test,2,0.0,1-Back,1,m,Fri Sep 06 2024 09:32:27 GMT-0500 (Central Daylight Time),283052.60000002384,086_o_f_n_a.png,O,m,722,13,1,1745.1000000238419,281307.5,7018,NNB,B,12
13,test,2,0.0,1-Back,1,m,Fri Sep 06 2024 09:32:27 GMT-0500 (Central Daylight Time),284652.10000002384,176_o_m_n_a.png,O,m,579,14,1,1595.6000000238419,283056.5,7018,NNB,B,13
14,test,2,0.0,1-Back,1,m,Fri Sep 06 2024 09:32:27 GMT-0500 (Central Daylight Time),286284.90000009537,065_o_m_n_a.png,O,m,578,15,1,1628.2000000476837,284656.7000000477,7018,NNB,B,14
15,test,2,1.0,1-Back,1,z,Fri Sep 06 2024 09:32:27 GMT-0500 (Central Daylight Time),287767.8000000715,065_o_m_n_a.png,O,z,436,16,1,1478.8999999761581,286288.90000009537,7018,NNB,B,15
16,test,2,0.0,1-Back,1,m,Fri Sep 06 2024 09:32:27 GMT-0500 (Central Daylight Time),289433.90000009537,013_y_m_n_a.png,O,m,625,17,1,1662.2000000476837,287771.7000000477,7018,NNB,B,16
17,test,2,1.0,1-Back,1,z,Fri Sep 06 2024 09:32:27 GMT-0500 (Central Daylight Time),290933.5,013_y_m_n_a.png,O,z,463,18,1,1495.5999999046326,289437.90000009537,7018,NNB,B,17
0,test,3,1.0,1-Back,,,Fri Sep 06 2024 09:32:27 GMT-0500 (Central Daylight Time),290933.5,173_y_f_n_a.png,O,space,1370,1,1,1495.5999999046326,289437.90000009537,7018,NNB,B,0
1,test,3,0.0,1-Back,1,m,Fri Sep 06 2024 09:32:27 GMT-0500 (Central Daylight Time),296098.3000000715,065_o_m_n_a.png,O,m,666,1,1,1678.7000000476837,294419.60000002384,7018,NNB,B,1
2,test,3,1.0,1-Back,1,z,Fri Sep 06 2024 09:32:27 GMT-0500 (Central Daylight Time),297764.7000000477,065_o_m_n_a.png,O,z,639,1,1,1662.3999999761581,296102.3000000715,7018,NNB,B,2
3,test,3,0.0,1-Back,1,m,Fri Sep 06 2024 09:32:27 GMT-0500 (Central Daylight Time),299330.8000000715,097_m_f_n_a.png,O,m,548,1,1,1561.8999999761581,297768.90000009537,7018,NNB,B,3
4,test,3,1.0,1-Back,1,z,Fri Sep 06 2024 09:32:27 GMT-0500 (Central Daylight Time),300781.90000009537,097_m_f_n_a.png,O,z,434,1,1,1447.6000000238419,299334.3000000715,7018,NNB,B,4
5,test,3,0.0,1-Back,1,m,Fri Sep 06 2024 09:32:27 GMT-0500 (Central Daylight Time),302429.90000009537,110_o_f_n_a.png,O,m,629,1,1,1643.9000000953674,300786.0,7018,NNB,B,5
6,test,3,0.0,1-Back,1,m,Fri Sep 06 2024 09:32:27 GMT-0500 (Central Daylight Time),303996.10000002384,153_y_m_n_a.png,O,m,539,1,1,1562.2999999523163,302433.8000000715,7018,NNB,B,6
7,test,3,0.0,1-Back,1,m,Fri Sep 06 2024 09:32:27 GMT-0500 (Central Daylight Time),305578.90000009537,110_o_f_n_a.png,O,m,556,1,1,1578.6000000238419,304000.3000000715,7018,NNB,B,7
8,test,3,0.0,1-Back,1,m,Fri Sep 06 2024 09:32:27 GMT-0500 (Central Daylight Time),307278.5,013_y_m_n_a.png,O,m,678,1,1,1695.6999999284744,305582.8000000715,7018,NNB,B,8
9,test,3,1.0,1-Back,1,z,Fri Sep 06 2024 09:32:27 GMT-0500 (Central Daylight Time),308861.40000009537,013_y_m_n_a.png,O,z,554,1,1,1579.1000000238419,307282.3000000715,7018,NNB,B,9
10,test,3,0.0,1-Back,1,m,Fri Sep 06 2024 09:32:27 GMT-0500 (Central Daylight Time),310427.40000009537,029_m_f_n_a.png,O,m,539,1,1,1562.7000000476837,308864.7000000477,7018,NNB,B,10
11,test,3,0.0,1-Back,1,m,Fri Sep 06 2024 09:32:27 GMT-0500 (Central Daylight Time),311977.0,152_y_f_n_a.png,O,m,517,1,1,1545.2999999523163,310431.7000000477,7018,NNB,B,11
12,test,3,1.0,1-Back,1,z,Fri Sep 06 2024 09:32:27 GMT-0500 (Central Daylight Time),313559.60000002384,152_y_f_n_a.png,O,z,560,1,1,1578.6000000238419,311981.0,7018,NNB,B,12
13,test,3,0.0,1-Back,1,m,Fri Sep 06 2024 09:32:27 GMT-0500 (Central Daylight Time),315142.5,029_m_f_n_a.png,O,m,552,1,1,1578.6999999284744,313563.8000000715,7018,NNB,B,13
14,test,3,0.0,1-Back,1,m,Fri Sep 06 2024 09:32:27 GMT-0500 (Central Daylight Time),316908.5,126_m_m_n_a.png,O,m,738,1,1,1761.8999999761581,315146.60000002384,7018,NNB,B,14
15,test,3,1.0,1-Back,1,z,Fri Sep 06 2024 09:32:27 GMT-0500 (Central Daylight Time),318458.10000002384,126_m_m_n_a.png,O,z,508,1,1,1545.6999999284744,316912.40000009537,7018,NNB,B,15
16,test,3,0.0,1-Back,1,m,Fri Sep 06 2024 09:32:27 GMT-0500 (Central Daylight Time),320091.10000002384,086_o_f_n_a.png,O,m,614,1,1,1628.6999999284744,318462.40000009537,7018,NNB,B,16
17,test,3,1.0,1-Back,1,z,Fri Sep 06 2024 09:32:27 GMT-0500 (Central Daylight Time),321756.90000009537,086_o_f_n_a.png,O,z,646,1,1,1662.5,320094.40000009537,7018,NNB,B,17
0,test,4,1.0,1-Back,,,Fri Sep 06 2024 09:32:27 GMT-0500 (Central Daylight Time),321756.90000009537,097_m_f_n_a.png,O,space,4387,1,1,1662.5,320094.40000009537,7018,NNB,B,0
1,test,4,0.0,1-Back,1,m,Fri Sep 06 2024 09:32:27 GMT-0500 (Central Daylight Time),330104.7000000477,065_o_m_n_a.png,O,m,819,2,1,1845.5,328259.2000000477,7018,NNB,B,1
2,test,4,0.0,1-Back,1,m,Fri Sep 06 2024 09:32:27 GMT-0500 (Central Daylight Time),331854.0,097_m_f_n_a.png,O,m,721,3,1,1745.5,330108.5,7018,NNB,B,2
3,test,4,0.0,1-Back,1,m,Fri Sep 06 2024 09:32:27 GMT-0500 (Central Daylight Time),333403.2000000477,110_o_f_n_a.png,O,m,522,4,1,1545.7000000476837,331857.5,7018,NNB,B,3
4,test,4,1.0,1-Back,1,z,Fri Sep 06 2024 09:32:27 GMT-0500 (Central Daylight Time),334902.90000009537,110_o_f_n_a.png,O,z,470,5,1,1496.0,333406.90000009537,7018,NNB,B,4
5,test,4,0.0,1-Back,1,m,Fri Sep 06 2024 09:32:27 GMT-0500 (Central Daylight Time),336452.3000000715,152_y_f_n_a.png,O,m,521,6,1,1545.8000000715256,334906.5,7018,NNB,B,5
6,test,4,0.0,1-Back,1,m,Fri Sep 06 2024 09:32:27 GMT-0500 (Central Daylight Time),337918.5,153_y_m_n_a.png,O,m,444,7,1,1462.8999999761581,336455.60000002384,7018,NNB,B,6
7,test,4,1.0,1-Back,1,z,Fri Sep 06 2024 09:32:27 GMT-0500 (Central Daylight Time),339535.0,153_y_m_n_a.png,O,z,595,8,1,1612.6999999284744,337922.3000000715,7018,NNB,B,7
8,test,4,0.0,1-Back,1,m,Fri Sep 06 2024 09:32:27 GMT-0500 (Central Daylight Time),341317.60000002384,152_y_f_n_a.png,O,m,761,9,1,1778.6999999284744,339538.90000009537,7018,NNB,B,8
9,test,4,0.0,1-Back,1,m,Fri Sep 06 2024 09:32:27 GMT-0500 (Central Daylight Time),342983.7000000477,178_m_m_n_a.png,O,m,635,10,1,1662.0,341321.7000000477,7018,NNB,B,9
10,test,4,1.0,1-Back,1,z,Fri Sep 06 2024 09:32:27 GMT-0500 (Central Daylight Time),344600.2000000477,178_m_m_n_a.png,O,z,584,11,1,1611.8999999761581,342988.3000000715,7018,NNB,B,10
11,test,4,0.0,1-Back,1,m,Fri Sep 06 2024 09:32:27 GMT-0500 (Central Daylight Time),346265.90000009537,086_o_f_n_a.png,O,m,648,12,1,1661.7000000476837,344604.2000000477,7018,NNB,B,11
12,test,4,0.0,1-Back,1,m,Fri Sep 06 2024 09:32:27 GMT-0500 (Central Daylight Time),347799.0,176_o_m_n_a.png,O,m,511,13,1,1529.5,346269.5,7018,NNB,B,12
13,test,4,0.0,1-Back,1,m,Fri Sep 06 2024 09:32:27 GMT-0500 (Central Daylight Time),349265.2000000477,086_o_f_n_a.png,O,m,442,14,1,1461.2999999523163,347803.90000009537,7018,NNB,B,13
14,test,4,0.0,1-Back,1,m,Fri Sep 06 2024 09:32:27 GMT-0500 (Central Daylight Time),350814.5,173_y_f_n_a.png,O,m,520,15,1,1545.8999999761581,349268.60000002384,7018,NNB,B,14
15,test,4,1.0,1-Back,1,z,Fri Sep 06 2024 09:32:27 GMT-0500 (Central Daylight Time),352297.7000000477,173_y_f_n_a.png,O,z,459,16,1,1479.2000000476837,350818.5,7018,NNB,B,15
16,test,4,0.0,1-Back,1,m,Fri Sep 06 2024 09:32:27 GMT-0500 (Central Daylight Time),353914.8000000715,029_m_f_n_a.png,O,m,591,17,1,1613.2000000476837,352301.60000002384,7018,NNB,B,16
17,test,4,1.0,1-Back,1,z,Fri Sep 06 2024 09:32:27 GMT-0500 (Central Daylight Time),355613.10000002384,029_m_f_n_a.png,O,z,662,18,1,1694.6000000238419,353918.5,7018,NNB,B,17
0,test,5,1.0,1-Back,,,Fri Sep 06 2024 09:32:27 GMT-0500 (Central Daylight Time),355613.10000002384,176_o_m_n_a.png,O,space,1395,1,1,1694.6000000238419,353918.5,7018,NNB,B,0
1,test,5,1.0,1-Back,1,z,Fri Sep 06 2024 09:32:27 GMT-0500 (Central Daylight Time),360694.90000009537,176_o_m_n_a.png,O,z,636,2,1,1662.2000000476837,359032.7000000477,7018,NNB,B,1
2,test,5,0.0,1-Back,1,m,Fri Sep 06 2024 09:32:27 GMT-0500 (Central Daylight Time),362577.60000002384,152_y_f_n_a.png,O,m,857,3,1,1878.3999999761581,360699.2000000477,7018,NNB,B,2
3,test,5,0.0,1-Back,1,m,Fri Sep 06 2024 09:32:27 GMT-0500 (Central Daylight Time),364143.8000000715,153_y_m_n_a.png,O,m,543,4,1,1562.5,362581.3000000715,7018,NNB,B,3
4,test,5,0.0,1-Back,1,m,Fri Sep 06 2024 09:32:27 GMT-0500 (Central Daylight Time),365909.8000000715,152_y_f_n_a.png,O,m,737,5,1,1762.1000000238419,364147.7000000477,7018,NNB,B,4
5,test,5,0.0,1-Back,1,m,Fri Sep 06 2024 09:32:27 GMT-0500 (Central Daylight Time),367542.90000009537,126_m_m_n_a.png,O,m,611,6,1,1628.9000000953674,365914.0,7018,NNB,B,5
6,test,5,1.0,1-Back,1,z,Fri Sep 06 2024 09:32:27 GMT-0500 (Central Daylight Time),369025.5,126_m_m_n_a.png,O,z,450,7,1,1479.5,367546.0,7018,NNB,B,6
7,test,5,0.0,1-Back,1,m,Fri Sep 06 2024 09:32:27 GMT-0500 (Central Daylight Time),370609.60000002384,173_y_f_n_a.png,O,m,551,8,1,1580.0,369029.60000002384,7018,NNB,B,7
8,test,5,0.0,1-Back,1,m,Fri Sep 06 2024 09:32:27 GMT-0500 (Central Daylight Time),372275.60000002384,013_y_m_n_a.png,O,m,649,9,1,1662.0,370613.60000002384,7018,NNB,B,8
9,test,5,0.0,1-Back,1,m,Fri Sep 06 2024 09:32:27 GMT-0500 (Central Daylight Time),373907.5,173_y_f_n_a.png,O,m,615,10,1,1628.6999999284744,372278.8000000715,7018,NNB,B,9
10,test,5,0.0,1-Back,1,m,Fri Sep 06 2024 09:32:27 GMT-0500 (Central Daylight Time),375523.7000000477,086_o_f_n_a.png,O,m,597,11,1,1612.3999999761581,373911.3000000715,7018,NNB,B,10
11,test,5,1.0,1-Back,1,z,Fri Sep 06 2024 09:32:27 GMT-0500 (Central Daylight Time),376989.7000000477,086_o_f_n_a.png,O,z,437,12,1,1462.0,375527.7000000477,7018,NNB,B,11
12,test,5,0.0,1-Back,1,m,Fri Sep 06 2024 09:32:27 GMT-0500 (Central Daylight Time),378572.5,065_o_m_n_a.png,O,m,555,13,1,1579.2999999523163,376993.2000000477,7018,NNB,B,12
13,test,5,0.0,1-Back,1,m,Fri Sep 06 2024 09:32:27 GMT-0500 (Central Daylight Time),380155.2000000477,097_m_f_n_a.png,O,m,540,14,1,1579.3999999761581,378575.8000000715,7018,NNB,B,13
14,test,5,1.0,1-Back,1,z,Fri Sep 06 2024 09:32:27 GMT-0500 (Central Daylight Time),381638.2000000477,097_m_f_n_a.png,O,z,437,15,1,1479.2000000476837,380159.0,7018,NNB,B,14
15,test,5,0.0,1-Back,1,m,Fri Sep 06 2024 09:32:27 GMT-0500 (Central Daylight Time),383187.90000009537,065_o_m_n_a.png,O,m,506,16,1,1546.1000000238419,381641.8000000715,7018,NNB,B,15
16,test,5,0.0,1-Back,1,m,Fri Sep 06 2024 09:32:27 GMT-0500 (Central Daylight Time),384753.90000009537,029_m_f_n_a.png,O,m,534,17,1,1562.3000000715256,383191.60000002384,7018,NNB,B,16
17,test,5,0.0,1-Back,1,m,Fri Sep 06 2024 09:32:27 GMT-0500 (Central Daylight Time),386403.5,178_m_m_n_a.png,O,m,622,18,1,1645.6999999284744,384757.8000000715,7018,NNB,B,17
0,prac,1,0.0,2-Back,,,Fri Sep 06 2024 09:32:27 GMT-0500 (Central Daylight Time),386403.5,013_y_m_n_a.png,O,space,18356,1,1,1645.6999999284744,384757.8000000715,7018,NNB,B,0
0,prac,1,0.0,2-Back,,,Fri Sep 06 2024 09:32:27 GMT-0500 (Central Daylight Time),386403.5,029_m_f_n_a.png,O,space,18356,2,1,1645.6999999284744,384757.8000000715,7018,NNB,B,0
1,prac,1,1.0,2-Back,1,m,Fri Sep 06 2024 09:32:27 GMT-0500 (Central Daylight Time),516979.10000002384,065_o_m_n_a.png,O,m,936,3,1,1810.1999999284744,515168.90000009537,7018,NNB,B,1
1,prac,1,0.0,2-Back,0,m,Fri Sep 06 2024 09:32:27 GMT-0500 (Central Daylight Time),519878.2000000477,086_o_f_n_a.png,O,None,2015,4,1,2893.600000023842,516984.60000002384,7018,NNB,B,2
1,prac,1,0.0,2-Back,0,z,Fri Sep 06 2024 09:32:27 GMT-0500 (Central Daylight Time),522510.7000000477,065_o_m_n_a.png,O,m,1853,5,1,2626.0,519884.7000000477,7018,NNB,B,3
2,prac,1,1.0,2-Back,1,z,Fri Sep 06 2024 09:32:27 GMT-0500 (Central Daylight Time),525093.1000000238,086_o_f_n_a.png,O,z,1796,6,1,2576.100000023842,522517.0,7018,NNB,B,4
3,prac,1,0.0,2-Back,1,m,Fri Sep 06 2024 09:32:27 GMT-0500 (Central Daylight Time),527792.3000000715,178_m_m_n_a.png,O,m,1808,7,1,2693.8000000715256,525098.5,7018,NNB,B,5
4,prac,1,0.0,2-Back,1,m,Fri Sep 06 2024 09:32:27 GMT-0500 (Central Daylight Time),529492.1000000238,176_o_m_n_a.png,O,m,806,8,1,1694.0,527798.1000000238,7018,NNB,B,6
5,prac,1,0.0,2-Back,1,m,Fri Sep 06 2024 09:32:27 GMT-0500 (Central Daylight Time),531257.8000000715,173_y_f_n_a.png,O,m,895,9,1,1760.6000000238419,529497.2000000477,7018,NNB,B,7
6,prac,1,1.0,2-Back,1,z,Fri Sep 06 2024 09:32:27 GMT-0500 (Central Daylight Time),532840.9000000954,176_o_m_n_a.png,O,z,810,10,1,1577.7000000476837,531263.2000000477,7018,NNB,B,8
7,prac,1,0.0,2-Back,1,m,Fri Sep 06 2024 09:32:27 GMT-0500 (Central Daylight Time),534540.5,152_y_f_n_a.png,O,m,835,11,1,1694.1999999284744,532846.3000000715,7018,NNB,B,9
7,prac,1,0.0,2-Back,0,m,Fri Sep 06 2024 09:32:27 GMT-0500 (Central Daylight Time),536256.5,178_m_m_n_a.png,O,z,935,12,1,1710.7999999523163,534545.7000000477,7018,NNB,B,10
0,test,1,0.0,2-Back,,,Fri Sep 06 2024 09:32:27 GMT-0500 (Central Daylight Time),536256.5,153_y_m_n_a.png,O,space,15508,1,1,1710.7999999523163,534545.7000000477,7018,NNB,B,0
0,test,1,0.0,2-Back,,,Fri Sep 06 2024 09:32:27 GMT-0500 (Central Daylight Time),536256.5,153_y_m_n_a.png,O,space,15508,2,1,1710.7999999523163,534545.7000000477,7018,NNB,B,0
0,test,1,0.0,2-Back,0,m,Fri Sep 06 2024 09:32:27 GMT-0500 (Central Daylight Time),566097.2000000477,086_o_f_n_a.png,O,z,767,3,1,1795.2999999523163,564301.9000000954,7018,NNB,B,1
1,test,1,0.0,2-Back,1,m,Fri Sep 06 2024 09:32:27 GMT-0500 (Central Daylight Time),567979.9000000954,126_m_m_n_a.png,O,m,856,4,1,1879.1000000238419,566100.8000000715,7018,NNB,B,2
2,test,1,1.0,2-Back,1,z,Fri Sep 06 2024 09:32:27 GMT-0500 (Central Daylight Time),569862.5,086_o_f_n_a.png,O,z,728,5,1,1743.2999999523163,568119.2000000477,7018,NNB,B,3
3,test,1,0.0,2-Back,1,m,Fri Sep 06 2024 09:32:27 GMT-0500 (Central Daylight Time),571778.6000000238,152_y_f_n_a.png,O,m,891,6,1,1912.7999999523163,569865.8000000715,7018,NNB,B,4
3,test,1,0.0,2-Back,0,m,Fri Sep 06 2024 09:32:27 GMT-0500 (Central Daylight Time),573811.3000000715,126_m_m_n_a.png,O,z,1014,7,1,2028.5,571782.8000000715,7018,NNB,B,5
3,test,1,1.0,2-Back,0,z,Fri Sep 06 2024 09:32:27 GMT-0500 (Central Daylight Time),575494.1000000238,152_y_f_n_a.png,O,m,654,8,1,1679.0,573815.1000000238,7018,NNB,B,6
4,test,1,0.0,2-Back,1,m,Fri Sep 06 2024 09:32:27 GMT-0500 (Central Daylight Time),577759.8000000715,013_y_m_n_a.png,O,m,1243,9,1,2262.100000023842,575497.7000000477,7018,NNB,B,7
5,test,1,0.0,2-Back,1,m,Fri Sep 06 2024 09:32:27 GMT-0500 (Central Daylight Time),579576.1000000238,110_o_f_n_a.png,O,m,793,10,1,1812.6999999284744,577763.4000000954,7018,NNB,B,8
6,test,1,1.0,2-Back,1,z,Fri Sep 06 2024 09:32:27 GMT-0500 (Central Daylight Time),581158.9000000954,013_y_m_n_a.png,O,z,553,11,1,1579.0,579579.9000000954,7018,NNB,B,9
7,test,1,0.0,2-Back,1,m,Fri Sep 06 2024 09:32:27 GMT-0500 (Central Daylight Time),583025.0,029_m_f_n_a.png,O,m,834,12,1,1863.0,581162.0,7018,NNB,B,10
8,test,1,0.0,2-Back,1,m,Fri Sep 06 2024 09:32:27 GMT-0500 (Central Daylight Time),585340.8000000715,029_m_f_n_a.png,O,m,1288,13,1,2312.0,583028.8000000715,7018,NNB,B,11
9,test,1,0.0,2-Back,1,m,Fri Sep 06 2024 09:32:27 GMT-0500 (Central Daylight Time),587406.9000000954,065_o_m_n_a.png,O,m,1044,14,1,2062.3000000715256,585344.6000000238,7018,NNB,B,12
10,test,1,0.0,2-Back,1,m,Fri Sep 06 2024 09:32:27 GMT-0500 (Central Daylight Time),589456.4000000954,110_o_f_n_a.png,O,m,1026,15,1,2045.8000000715256,587410.6000000238,7018,NNB,B,13
11,test,1,1.0,2-Back,1,z,Fri Sep 06 2024 09:32:27 GMT-0500 (Central Daylight Time),591039.1000000238,065_o_m_n_a.png,O,z,552,16,1,1579.6000000238419,589459.5,7018,NNB,B,14
12,test,1,0.0,2-Back,1,m,Fri Sep 06 2024 09:32:27 GMT-0500 (Central Daylight Time),592772.0,097_m_f_n_a.png,O,m,714,17,1,1728.8999999761581,591043.1000000238,7018,NNB,B,15
13,test,1,0.0,2-Back,1,m,Fri Sep 06 2024 09:32:27 GMT-0500 (Central Daylight Time),594671.3000000715,178_m_m_n_a.png,O,m,878,18,1,1895.5,592775.8000000715,7018,NNB,B,16
0,test,2,0.0,2-Back,,,Fri Sep 06 2024 09:32:27 GMT-0500 (Central Daylight Time),594671.3000000715,178_m_m_n_a.png,O,space,1330,1,1,1895.5,592775.8000000715,7018,NNB,B,0
0,test,2,0.0,2-Back,,,Fri Sep 06 2024 09:32:27 GMT-0500 (Central Daylight Time),594671.3000000715,173_y_f_n_a.png,O,space,1330,2,1,1895.5,592775.8000000715,7018,NNB,B,0
1,test,2,1.0,2-Back,1,z,Fri Sep 06 2024 09:32:27 GMT-0500 (Central Daylight Time),603235.1000000238,178_m_m_n_a.png,O,z,1081,3,1,2095.399999976158,601139.7000000477,7018,NNB,B,1
2,test,2,0.0,2-Back,1,m,Fri Sep 06 2024 09:32:27 GMT-0500 (Central Daylight Time),604984.7000000477,097_m_f_n_a.png,O,m,725,4,1,1746.0,603238.7000000477,7018,NNB,B,2
3,test,2,0.0,2-Back,1,m,Fri Sep 06 2024 09:32:27 GMT-0500 (Central Daylight Time),607134.0,173_y_f_n_a.png,O,m,1121,5,1,2146.0999999046326,604987.9000000954,7018,NNB,B,3
4,test,2,0.0,2-Back,1,m,Fri Sep 06 2024 09:32:27 GMT-0500 (Central Daylight Time),609100.1000000238,065_o_m_n_a.png,O,m,939,6,1,1962.1999999284744,607137.9000000954,7018,NNB,B,4
5,test,2,0.0,2-Back,1,m,Fri Sep 06 2024 09:32:27 GMT-0500 (Central Daylight Time),610982.8000000715,152_y_f_n_a.png,O,m,852,7,1,1878.8999999761581,609103.9000000954,7018,NNB,B,5
6,test,2,1.0,2-Back,1,z,Fri Sep 06 2024 09:32:27 GMT-0500 (Central Daylight Time),612582.2000000477,065_o_m_n_a.png,O,z,577,8,1,1595.7999999523163,610986.4000000954,7018,NNB,B,6
7,test,2,0.0,2-Back,1,m,Fri Sep 06 2024 09:32:27 GMT-0500 (Central Daylight Time),614448.5,013_y_m_n_a.png,O,m,835,9,1,1862.5,612586.0,7018,NNB,B,7
8,test,2,0.0,2-Back,1,m,Fri Sep 06 2024 09:32:27 GMT-0500 (Central Daylight Time),616431.1000000238,013_y_m_n_a.png,O,m,951,10,1,1978.6999999284744,614452.4000000954,7018,NNB,B,8
9,test,2,0.0,2-Back,1,m,Fri Sep 06 2024 09:32:27 GMT-0500 (Central Daylight Time),618313.9000000954,029_m_f_n_a.png,O,m,866,11,1,1879.2000000476837,616434.7000000477,7018,NNB,B,9
10,test,2,0.0,2-Back,1,m,Fri Sep 06 2024 09:32:27 GMT-0500 (Central Daylight Time),620246.6000000238,173_y_f_n_a.png,O,m,903,12,1,1928.6999999284744,618317.9000000954,7018,NNB,B,10
11,test,2,1.0,2-Back,1,z,Fri Sep 06 2024 09:32:27 GMT-0500 (Central Daylight Time),622229.3000000715,029_m_f_n_a.png,O,z,955,13,1,1979.3999999761581,620249.9000000954,7018,NNB,B,11
12,test,2,0.0,2-Back,1,m,Fri Sep 06 2024 09:32:27 GMT-0500 (Central Daylight Time),624078.6000000238,176_o_m_n_a.png,O,m,819,14,1,1846.1000000238419,622232.5,7018,NNB,B,12
13,test,2,0.0,2-Back,1,m,Fri Sep 06 2024 09:32:27 GMT-0500 (Central Daylight Time),625961.5,176_o_m_n_a.png,O,m,859,15,1,1879.1999999284744,624082.3000000715,7018,NNB,B,13
14,test,2,0.0,2-Back,1,m,Fri Sep 06 2024 09:32:27 GMT-0500 (Central Daylight Time),627944.1000000238,110_o_f_n_a.png,O,m,960,16,1,1979.1999999284744,625964.9000000954,7018,NNB,B,14
15,test,2,0.0,2-Back,1,m,Fri Sep 06 2024 09:32:27 GMT-0500 (Central Daylight Time),630076.9000000954,126_m_m_n_a.png,O,m,1104,17,1,2128.8000000715256,627948.1000000238,7018,NNB,B,15
16,test,2,1.0,2-Back,1,z,Fri Sep 06 2024 09:32:27 GMT-0500 (Central Daylight Time),632159.8000000715,110_o_f_n_a.png,O,z,1061,18,1,2078.899999976158,630080.9000000954,7018,NNB,B,16
0,test,3,1.0,2-Back,,,Fri Sep 06 2024 09:32:27 GMT-0500 (Central Daylight Time),632159.8000000715,153_y_m_n_a.png,O,space,1209,1,1,2078.899999976158,630080.9000000954,7018,NNB,B,0
0,test,3,1.0,2-Back,,,Fri Sep 06 2024 09:32:27 GMT-0500 (Central Daylight Time),632159.8000000715,153_y_m_n_a.png,O,space,1209,2,1,2078.899999976158,630080.9000000954,7018,NNB,B,0
1,test,3,0.0,2-Back,1,m,Fri Sep 06 2024 09:32:27 GMT-0500 (Central Daylight Time),640157.0,110_o_f_n_a.png,O,m,630,3,1,1645.7999999523163,638511.2000000477,7018,NNB,B,1
2,test,3,0.0,2-Back,1,m,Fri Sep 06 2024 09:32:27 GMT-0500 (Central Daylight Time),642039.7000000477,178_m_m_n_a.png,O,m,852,4,1,1879.0,640160.7000000477,7018,NNB,B,2
3,test,3,1.0,2-Back,1,z,Fri Sep 06 2024 09:32:27 GMT-0500 (Central Daylight Time),643589.3000000715,110_o_f_n_a.png,O,z,529,5,1,1546.3999999761581,642042.9000000954,7018,NNB,B,3
4,test,3,0.0,2-Back,1,m,Fri Sep 06 2024 09:32:27 GMT-0500 (Central Daylight Time),645322.2000000477,013_y_m_n_a.png,O,m,708,6,1,1729.2000000476837,643593.0,7018,NNB,B,4
5,test,3,0.0,2-Back,1,m,Fri Sep 06 2024 09:32:27 GMT-0500 (Central Daylight Time),647288.2000000477,178_m_m_n_a.png,O,m,935,7,1,1961.7000000476837,645326.5,7018,NNB,B,5
6,test,3,1.0,2-Back,1,z,Fri Sep 06 2024 09:32:27 GMT-0500 (Central Daylight Time),648870.7000000477,013_y_m_n_a.png,O,z,561,8,1,1579.0,647291.7000000477,7018,NNB,B,6
7,test,3,0.0,2-Back,1,m,Fri Sep 06 2024 09:32:27 GMT-0500 (Central Daylight Time),650636.8000000715,173_y_f_n_a.png,O,m,747,9,1,1762.2000000476837,648874.6000000238,7018,NNB,B,7
7,test,3,0.0,2-Back,0,m,Fri Sep 06 2024 09:32:27 GMT-0500 (Central Daylight Time),652653.2000000477,126_m_m_n_a.png,O,z,996,10,1,2013.2999999523163,650639.9000000954,7018,NNB,B,8
8,test,3,1.0,2-Back,1,z,Fri Sep 06 2024 09:32:27 GMT-0500 (Central Daylight Time),654985.8000000715,173_y_f_n_a.png,O,z,1315,11,1,2329.3000000715256,652656.5,7018,NNB,B,9
9,test,3,1.0,2-Back,1,z,Fri Sep 06 2024 09:32:27 GMT-0500 (Central Daylight Time),656885.0,126_m_m_n_a.png,O,z,872,12,1,1895.3999999761581,654989.6000000238,7018,NNB,B,10
10,test,3,0.0,2-Back,1,m,Fri Sep 06 2024 09:32:27 GMT-0500 (Central Daylight Time),658584.6000000238,110_o_f_n_a.png,O,m,668,13,1,1696.5,656888.1000000238,7018,NNB,B,11
11,test,3,0.0,2-Back,1,m,Fri Sep 06 2024 09:32:27 GMT-0500 (Central Daylight Time),660583.8000000715,097_m_f_n_a.png,O,m,969,14,1,1995.2000000476837,658588.6000000238,7018,NNB,B,12
12,test,3,0.0,2-Back,1,m,Fri Sep 06 2024 09:32:27 GMT-0500 (Central Daylight Time),662461.6000000238,065_o_m_n_a.png,O,m,844,15,1,1874.0,660587.6000000238,7018,NNB,B,13
13,test,3,1.0,2-Back,1,z,Fri Sep 06 2024 09:32:27 GMT-0500 (Central Daylight Time),664116.0,097_m_f_n_a.png,O,z,631,16,1,1650.7999999523163,662465.2000000477,7018,NNB,B,14
14,test,3,0.0,2-Back,1,m,Fri Sep 06 2024 09:32:27 GMT-0500 (Central Daylight Time),665932.2000000477,086_o_f_n_a.png,O,m,797,17,1,1812.2999999523163,664119.9000000954,7018,NNB,B,15
15,test,3,0.0,2-Back,1,m,Fri Sep 06 2024 09:32:27 GMT-0500 (Central Daylight Time),667781.6000000238,086_o_f_n_a.png,O,m,820,18,1,1845.5,665936.1000000238,7018,NNB,B,16
0,test,4,0.0,2-Back,,,Fri Sep 06 2024 09:32:27 GMT-0500 (Central Daylight Time),667781.6000000238,176_o_m_n_a.png,O,space,1306,1,1,1845.5,665936.1000000238,7018,NNB,B,0
0,test,4,0.0,2-Back,,,Fri Sep 06 2024 09:32:27 GMT-0500 (Central Daylight Time),667781.6000000238,152_y_f_n_a.png,O,space,1306,2,1,1845.5,665936.1000000238,7018,NNB,B,0
1,test,4,1.0,2-Back,1,z,Fri Sep 06 2024 09:32:27 GMT-0500 (Central Daylight Time),676129.1000000238,176_o_m_n_a.png,O,z,767,3,1,1795.6000000238419,674333.5,7018,NNB,B,1
1,test,4,1.0,2-Back,0,z,Fri Sep 06 2024 09:32:27 GMT-0500 (Central Daylight Time),678195.0,152_y_f_n_a.png,O,m,1040,4,1,2062.6999999284744,676132.3000000715,7018,NNB,B,2
2,test,4,0.0,2-Back,1,m,Fri Sep 06 2024 09:32:27 GMT-0500 (Central Daylight Time),680111.1000000238,110_o_f_n_a.png,O,m,894,5,1,1912.2999999523163,678198.8000000715,7018,NNB,B,3
2,test,4,0.0,2-Back,0,m,Fri Sep 06 2024 09:32:27 GMT-0500 (Central Daylight Time),682010.4000000954,110_o_f_n_a.png,O,z,874,6,1,1895.7000000476837,680114.7000000477,7018,NNB,B,4
3,test,4,0.0,2-Back,1,m,Fri Sep 06 2024 09:32:27 GMT-0500 (Central Daylight Time),683776.5,029_m_f_n_a.png,O,m,742,7,1,1762.1999999284744,682014.3000000715,7018,NNB,B,5
4,test,4,0.0,2-Back,1,m,Fri Sep 06 2024 09:32:27 GMT-0500 (Central Daylight Time),685626.0,013_y_m_n_a.png,O,m,833,8,1,1845.0,683781.0,7018,NNB,B,6
5,test,4,1.0,2-Back,1,z,Fri Sep 06 2024 09:32:27 GMT-0500 (Central Daylight Time),687125.6000000238,029_m_f_n_a.png,O,z,479,9,1,1496.1999999284744,685629.4000000954,7018,NNB,B,7
6,test,4,0.0,2-Back,1,m,Fri Sep 06 2024 09:32:27 GMT-0500 (Central Daylight Time),689075.0,126_m_m_n_a.png,O,m,932,10,1,1945.5,687129.5,7018,NNB,B,8
6,test,4,0.0,2-Back,0,m,Fri Sep 06 2024 09:32:27 GMT-0500 (Central Daylight Time),690641.3000000715,013_y_m_n_a.png,O,z,542,11,1,1562.7000000476837,689078.6000000238,7018,NNB,B,9
7,test,4,0.0,2-Back,1,m,Fri Sep 06 2024 09:32:27 GMT-0500 (Central Daylight Time),692473.8000000715,086_o_f_n_a.png,O,m,816,12,1,1829.2000000476837,690644.6000000238,7018,NNB,B,10
8,test,4,0.0,2-Back,1,m,Fri Sep 06 2024 09:32:27 GMT-0500 (Central Daylight Time),694140.0,153_y_m_n_a.png,O,m,639,13,1,1662.5999999046326,692477.4000000954,7018,NNB,B,11
9,test,4,1.0,2-Back,1,z,Fri Sep 06 2024 09:32:27 GMT-0500 (Central Daylight Time),695689.5,086_o_f_n_a.png,O,z,526,14,1,1545.6999999284744,694143.8000000715,7018,NNB,B,12
10,test,4,1.0,2-Back,1,z,Fri Sep 06 2024 09:32:27 GMT-0500 (Central Daylight Time),697688.9000000954,153_y_m_n_a.png,O,z,967,15,1,1995.7000000476837,695693.2000000477,7018,NNB,B,13
11,test,4,0.0,2-Back,1,m,Fri Sep 06 2024 09:32:27 GMT-0500 (Central Daylight Time),699421.7000000477,178_m_m_n_a.png,O,m,712,16,1,1728.8999999761581,697692.8000000715,7018,NNB,B,14
12,test,4,0.0,2-Back,1,m,Fri Sep 06 2024 09:32:27 GMT-0500 (Central Daylight Time),701321.3000000715,097_m_f_n_a.png,O,m,867,17,1,1895.3999999761581,699425.9000000954,7018,NNB,B,15
13,test,4,1.0,2-Back,1,z,Fri Sep 06 2024 09:32:27 GMT-0500 (Central Daylight Time),702803.9000000954,178_m_m_n_a.png,O,z,463,18,1,1478.7000000476837,701325.2000000477,7018,NNB,B,16
0,test,5,1.0,2-Back,,,Fri Sep 06 2024 09:32:27 GMT-0500 (Central Daylight Time),702803.9000000954,153_y_m_n_a.png,O,space,1277,1,1,1478.7000000476837,701325.2000000477,7018,NNB,B,0
0,test,5,1.0,2-Back,,,Fri Sep 06 2024 09:32:27 GMT-0500 (Central Daylight Time),702803.9000000954,097_m_f_n_a.png,O,space,1277,2,1,1478.7000000476837,701325.2000000477,7018,NNB,B,0
1,test,5,1.0,2-Back,1,z,Fri Sep 06 2024 09:32:27 GMT-0500 (Central Daylight Time),710684.7000000477,153_y_m_n_a.png,O,z,521,3,1,1545.3999999761581,709139.3000000715,7018,NNB,B,1
2,test,5,1.0,2-Back,1,z,Fri Sep 06 2024 09:32:27 GMT-0500 (Central Daylight Time),712450.8000000715,097_m_f_n_a.png,O,z,741,4,1,1761.8000000715256,710689.0,7018,NNB,B,2
3,test,5,0.0,2-Back,1,m,Fri Sep 06 2024 09:32:27 GMT-0500 (Central Daylight Time),714350.3000000715,086_o_f_n_a.png,O,m,878,5,1,1895.5,712454.8000000715,7018,NNB,B,3
4,test,5,0.0,2-Back,1,m,Fri Sep 06 2024 09:32:27 GMT-0500 (Central Daylight Time),716266.2000000477,153_y_m_n_a.png,O,m,899,6,1,1912.2000000476837,714354.0,7018,NNB,B,4
5,test,5,0.0,2-Back,1,m,Fri Sep 06 2024 09:32:27 GMT-0500 (Central Daylight Time),718065.8000000715,173_y_f_n_a.png,O,m,774,7,1,1795.8000000715256,716270.0,7018,NNB,B,5
6,test,5,0.0,2-Back,1,m,Fri Sep 06 2024 09:32:27 GMT-0500 (Central Daylight Time),720081.8000000715,086_o_f_n_a.png,O,m,992,8,1,2012.3999999761581,718069.4000000954,7018,NNB,B,6
7,test,5,1.0,2-Back,1,z,Fri Sep 06 2024 09:32:27 GMT-0500 (Central Daylight Time),722014.8000000715,173_y_f_n_a.png,O,z,912,9,1,1929.0,720085.8000000715,7018,NNB,B,7
8,test,5,0.0,2-Back,1,m,Fri Sep 06 2024 09:32:27 GMT-0500 (Central Daylight Time),723947.2000000477,065_o_m_n_a.png,O,m,907,10,1,1929.2999999523163,722017.9000000954,7018,NNB,B,8
9,test,5,0.0,2-Back,1,m,Fri Sep 06 2024 09:32:27 GMT-0500 (Central Daylight Time),725913.5,029_m_f_n_a.png,O,m,934,11,1,1963.0999999046326,723950.4000000954,7018,NNB,B,9
10,test,5,0.0,2-Back,1,m,Fri Sep 06 2024 09:32:27 GMT-0500 (Central Daylight Time),727746.1000000238,126_m_m_n_a.png,O,m,799,12,1,1828.8999999761581,725917.2000000477,7018,NNB,B,10
11,test,5,0.0,2-Back,1,m,Fri Sep 06 2024 09:32:27 GMT-0500 (Central Daylight Time),729645.5,065_o_m_n_a.png,O,m,879,13,1,1896.2999999523163,727749.2000000477,7018,NNB,B,11
12,test,5,1.0,2-Back,1,z,Fri Sep 06 2024 09:32:27 GMT-0500 (Central Daylight Time),731578.2000000477,126_m_m_n_a.png,O,z,908,14,1,1929.1000000238419,729649.1000000238,7018,NNB,B,12
13,test,5,0.0,2-Back,1,m,Fri Sep 06 2024 09:32:27 GMT-0500 (Central Daylight Time),733594.1000000238,152_y_f_n_a.png,O,m,999,15,1,2012.2999999523163,731581.8000000715,7018,NNB,B,13
14,test,5,0.0,2-Back,1,m,Fri Sep 06 2024 09:32:27 GMT-0500 (Central Daylight Time),735527.2000000477,176_o_m_n_a.png,O,m,911,16,1,1929.6000000238419,733597.6000000238,7018,NNB,B,14
15,test,5,0.0,2-Back,1,m,Fri Sep 06 2024 09:32:27 GMT-0500 (Central Daylight Time),737409.6000000238,029_m_f_n_a.png,O,m,865,17,1,1878.6999999284744,735530.9000000954,7018,NNB,B,15
16,test,5,1.0,2-Back,1,z,Fri Sep 06 2024 09:32:27 GMT-0500 (Central Daylight Time),739125.9000000954,176_o_m_n_a.png,O,z,687,18,1,1713.3000000715256,737412.6000000238,7018,NNB,B,16
