acc_sum,block,block_c,change,condition,correct,correct_response,datetime,endtime,face,project,response,response_time,row_sel,session_number,start_end,starttime,subject_id,task,task_vers,trial
0,prac,1,,1-Back,,,Thu Sep 26 2024 15:34:23 GMT-0500 (Central Daylight Time),,097_m_f_n_a.png,O,space,15151,1,1,,,9999,NNB,B,0
1,prac,1,0.0,1-Back,1,m,Thu Sep 26 2024 15:34:23 GMT-0500 (Central Daylight Time),219701.8999999999,152_y_f_n_a.png,O,m,1476,2,1,2341.5,217360.3999999999,9999,NNB,B,1
2,prac,1,1.0,1-Back,1,z,Thu Sep 26 2024 15:34:23 GMT-0500 (Central Daylight Time),222119.0,152_y_f_n_a.png,O,z,1658,3,1,2411.399999999907,219707.6000000001,9999,NNB,B,2
3,prac,1,0.0,1-Back,1,m,Thu Sep 26 2024 15:34:23 GMT-0500 (Central Daylight Time),224750.1000000001,176_o_m_n_a.png,O,m,1752,4,1,2625.3000000002794,222124.7999999998,9999,NNB,B,3
4,prac,1,0.0,1-Back,1,m,Thu Sep 26 2024 15:34:23 GMT-0500 (Central Daylight Time),226716.3999999999,126_m_m_n_a.png,O,m,1060,5,1,1960.6000000000931,224755.7999999998,9999,NNB,B,4
5,prac,1,1.0,1-Back,1,z,Thu Sep 26 2024 15:34:23 GMT-0500 (Central Daylight Time),228549.1000000001,126_m_m_n_a.png,O,z,1045,6,1,1827.3999999999069,226721.7000000002,9999,NNB,B,5
6,prac,1,0.0,1-Back,1,m,Thu Sep 26 2024 15:34:23 GMT-0500 (Central Daylight Time),230681.6000000001,086_o_f_n_a.png,O,m,1243,7,1,2126.600000000093,228555.0,9999,NNB,B,6
7,prac,1,0.0,1-Back,1,m,Thu Sep 26 2024 15:34:23 GMT-0500 (Central Daylight Time),232599.0,178_m_m_n_a.png,O,m,1064,8,1,1911.7000000001863,230687.2999999998,9999,NNB,B,7
8,prac,1,0.0,1-Back,1,m,Thu Sep 26 2024 15:34:23 GMT-0500 (Central Daylight Time),234798.2999999998,097_m_f_n_a.png,O,m,1417,9,1,2193.5999999996275,232604.7000000002,9999,NNB,B,8
9,prac,1,1.0,1-Back,1,z,Thu Sep 26 2024 15:34:23 GMT-0500 (Central Daylight Time),236546.6000000001,097_m_f_n_a.png,O,z,969,10,1,1742.3000000002794,234804.2999999998,9999,NNB,B,9
10,prac,1,0.0,1-Back,1,m,Thu Sep 26 2024 15:34:23 GMT-0500 (Central Daylight Time),238546.0,176_o_m_n_a.png,O,m,1213,11,1,1993.7999999998137,236552.2000000002,9999,NNB,B,10
10,prac,1,0.0,1-Back,0,m,Thu Sep 26 2024 15:34:23 GMT-0500 (Central Daylight Time),240628.6000000001,173_y_f_n_a.png,O,z,1205,12,1,2076.600000000093,238552.0,9999,NNB,B,11
0,test,1,0.0,1-Back,,,Thu Sep 26 2024 15:34:23 GMT-0500 (Central Daylight Time),240628.6000000001,152_y_f_n_a.png,O,space,21168,1,1,2076.600000000093,238552.0,9999,NNB,B,0
1,test,1,0.0,1-Back,1,m,Thu Sep 26 2024 15:34:23 GMT-0500 (Central Daylight Time),305641.5,029_m_f_n_a.png,O,m,1379,2,1,2394.899999999907,303246.6000000001,9999,NNB,B,1
2,test,1,0.0,1-Back,1,m,Thu Sep 26 2024 15:34:23 GMT-0500 (Central Daylight Time),307774.2999999998,173_y_f_n_a.png,O,m,1091,3,1,2128.5,305645.7999999998,9999,NNB,B,2
3,test,1,1.0,1-Back,1,z,Thu Sep 26 2024 15:34:23 GMT-0500 (Central Daylight Time),309523.6000000001,173_y_f_n_a.png,O,z,702,4,1,1745.2000000001863,307778.3999999999,9999,NNB,B,3
4,test,1,0.0,1-Back,1,m,Thu Sep 26 2024 15:34:23 GMT-0500 (Central Daylight Time),311339.7000000002,029_m_f_n_a.png,O,m,795,5,1,1812.4000000003725,309527.2999999998,9999,NNB,B,4
5,test,1,0.0,1-Back,1,m,Thu Sep 26 2024 15:34:23 GMT-0500 (Central Daylight Time),313389.1000000001,176_o_m_n_a.png,O,m,1026,6,1,2045.6000000000931,311343.5,9999,NNB,B,5
6,test,1,1.0,1-Back,1,z,Thu Sep 26 2024 15:34:23 GMT-0500 (Central Daylight Time),315138.7000000002,176_o_m_n_a.png,O,z,728,7,1,1745.5,313393.2000000002,9999,NNB,B,6
7,test,1,0.0,1-Back,1,m,Thu Sep 26 2024 15:34:23 GMT-0500 (Central Daylight Time),316971.3999999999,126_m_m_n_a.png,O,m,802,8,1,1828.7999999998137,315142.6000000001,9999,NNB,B,7
8,test,1,0.0,1-Back,1,m,Thu Sep 26 2024 15:34:23 GMT-0500 (Central Daylight Time),319187.3999999999,086_o_f_n_a.png,O,m,1195,9,1,2211.7999999998137,316975.6000000001,9999,NNB,B,8
9,test,1,0.0,1-Back,1,m,Thu Sep 26 2024 15:34:23 GMT-0500 (Central Daylight Time),321504.3999999999,126_m_m_n_a.png,O,m,1298,10,1,2313.0,319191.3999999999,9999,NNB,B,9
10,test,1,0.0,1-Back,1,m,Thu Sep 26 2024 15:34:23 GMT-0500 (Central Daylight Time),323319.1000000001,153_y_m_n_a.png,O,m,798,11,1,1811.1000000000931,321508.0,9999,NNB,B,10
11,test,1,1.0,1-Back,1,z,Thu Sep 26 2024 15:34:23 GMT-0500 (Central Daylight Time),325102.2999999998,153_y_m_n_a.png,O,z,758,12,1,1779.5,323322.7999999998,9999,NNB,B,11
12,test,1,0.0,1-Back,1,m,Thu Sep 26 2024 15:34:23 GMT-0500 (Central Daylight Time),326951.3999999999,110_o_f_n_a.png,O,m,831,13,1,1845.2999999998137,325106.1000000001,9999,NNB,B,12
13,test,1,1.0,1-Back,1,z,Thu Sep 26 2024 15:34:23 GMT-0500 (Central Daylight Time),328701.0,110_o_f_n_a.png,O,z,726,14,1,1745.7000000001863,326955.2999999998,9999,NNB,B,13
14,test,1,0.0,1-Back,1,m,Thu Sep 26 2024 15:34:23 GMT-0500 (Central Daylight Time),330850.2999999998,013_y_m_n_a.png,O,m,1120,15,1,2145.399999999907,328704.8999999999,9999,NNB,B,14
15,test,1,0.0,1-Back,1,m,Thu Sep 26 2024 15:34:23 GMT-0500 (Central Daylight Time),332649.7000000002,097_m_f_n_a.png,O,m,772,16,1,1796.2000000001863,330853.5,9999,NNB,B,15
16,test,1,0.0,1-Back,1,m,Thu Sep 26 2024 15:34:23 GMT-0500 (Central Daylight Time),334415.8999999999,065_o_m_n_a.png,O,m,740,17,1,1762.2999999998137,332653.6000000001,9999,NNB,B,16
17,test,1,0.0,1-Back,1,m,Thu Sep 26 2024 15:34:23 GMT-0500 (Central Daylight Time),336815.1000000001,097_m_f_n_a.png,O,m,1373,18,1,2395.7000000001863,334419.3999999999,9999,NNB,B,17
0,test,2,0.0,1-Back,,,Thu Sep 26 2024 15:34:23 GMT-0500 (Central Daylight Time),336815.1000000001,126_m_m_n_a.png,O,space,5702,1,1,2395.7000000001863,334419.3999999999,9999,NNB,B,0
1,test,2,0.0,1-Back,1,m,Thu Sep 26 2024 15:34:23 GMT-0500 (Central Daylight Time),346545.2999999998,029_m_f_n_a.png,O,m,979,2,1,1995.0999999996275,344550.2000000002,9999,NNB,B,1
2,test,2,1.0,1-Back,1,z,Thu Sep 26 2024 15:34:23 GMT-0500 (Central Daylight Time),348528.1000000001,029_m_f_n_a.png,O,z,956,3,1,1978.8000000002794,346549.2999999998,9999,NNB,B,2
3,test,2,0.0,1-Back,1,m,Thu Sep 26 2024 15:34:23 GMT-0500 (Central Daylight Time),350277.3999999999,126_m_m_n_a.png,O,m,717,4,1,1745.1999999997206,348532.2000000002,9999,NNB,B,3
4,test,2,0.0,1-Back,1,m,Thu Sep 26 2024 15:34:23 GMT-0500 (Central Daylight Time),352027.0,153_y_m_n_a.png,O,m,728,5,1,1745.2000000001863,350281.7999999998,9999,NNB,B,4
5,test,2,0.0,1-Back,1,m,Thu Sep 26 2024 15:34:23 GMT-0500 (Central Daylight Time),353726.5,152_y_f_n_a.png,O,m,667,6,1,1695.6000000000931,352030.8999999999,9999,NNB,B,5
6,test,2,1.0,1-Back,1,z,Thu Sep 26 2024 15:34:23 GMT-0500 (Central Daylight Time),355492.3999999999,152_y_f_n_a.png,O,z,742,7,1,1761.6999999997206,353730.7000000002,9999,NNB,B,6
7,test,2,0.0,1-Back,1,m,Thu Sep 26 2024 15:34:23 GMT-0500 (Central Daylight Time),357491.8999999999,153_y_m_n_a.png,O,m,977,8,1,1995.3999999999069,355496.5,9999,NNB,B,7
8,test,2,0.0,1-Back,1,m,Thu Sep 26 2024 15:34:23 GMT-0500 (Central Daylight Time),359158.0,110_o_f_n_a.png,O,m,642,9,1,1662.2999999998137,357495.7000000002,9999,NNB,B,8
9,test,2,0.0,1-Back,1,m,Thu Sep 26 2024 15:34:23 GMT-0500 (Central Daylight Time),360857.5,178_m_m_n_a.png,O,m,671,10,1,1695.6000000000931,359161.8999999999,9999,NNB,B,9
10,test,2,1.0,1-Back,1,z,Thu Sep 26 2024 15:34:23 GMT-0500 (Central Daylight Time),362607.0,178_m_m_n_a.png,O,z,733,11,1,1745.7999999998137,360861.2000000002,9999,NNB,B,10
11,test,2,0.0,1-Back,1,m,Thu Sep 26 2024 15:34:23 GMT-0500 (Central Daylight Time),364256.3999999999,110_o_f_n_a.png,O,m,630,12,1,1645.6999999997206,362610.7000000002,9999,NNB,B,11
12,test,2,0.0,1-Back,1,m,Thu Sep 26 2024 15:34:23 GMT-0500 (Central Daylight Time),366155.7000000002,086_o_f_n_a.png,O,m,869,13,1,1895.5,364260.2000000002,9999,NNB,B,12
13,test,2,0.0,1-Back,1,m,Thu Sep 26 2024 15:34:23 GMT-0500 (Central Daylight Time),367955.3999999999,176_o_m_n_a.png,O,m,770,14,1,1796.2999999998137,366159.1000000001,9999,NNB,B,13
14,test,2,0.0,1-Back,1,m,Thu Sep 26 2024 15:34:23 GMT-0500 (Central Daylight Time),369771.6000000001,065_o_m_n_a.png,O,m,794,15,1,1813.0,367958.6000000001,9999,NNB,B,14
15,test,2,1.0,1-Back,1,z,Thu Sep 26 2024 15:34:23 GMT-0500 (Central Daylight Time),371854.7999999998,065_o_m_n_a.png,O,z,1050,16,1,2078.899999999907,369775.8999999999,9999,NNB,B,15
16,test,2,0.0,1-Back,1,m,Thu Sep 26 2024 15:34:23 GMT-0500 (Central Daylight Time),373703.3999999999,013_y_m_n_a.png,O,m,807,17,1,1844.7999999998137,371858.6000000001,9999,NNB,B,16
17,test,2,1.0,1-Back,1,z,Thu Sep 26 2024 15:34:23 GMT-0500 (Central Daylight Time),375319.7000000002,013_y_m_n_a.png,O,z,598,18,1,1612.2000000001863,373707.5,9999,NNB,B,17
0,test,3,1.0,1-Back,,,Thu Sep 26 2024 15:34:23 GMT-0500 (Central Daylight Time),375319.7000000002,173_y_f_n_a.png,O,space,1566,1,1,1612.2000000001863,373707.5,9999,NNB,B,0
1,test,3,0.0,1-Back,1,m,Thu Sep 26 2024 15:34:23 GMT-0500 (Central Daylight Time),380967.8999999999,065_o_m_n_a.png,O,m,924,1,1,1962.0,379005.8999999999,9999,NNB,B,1
2,test,3,1.0,1-Back,1,z,Thu Sep 26 2024 15:34:23 GMT-0500 (Central Daylight Time),382634.1000000001,065_o_m_n_a.png,O,z,645,1,1,1662.2000000001863,380971.8999999999,9999,NNB,B,2
3,test,3,0.0,1-Back,1,m,Thu Sep 26 2024 15:34:23 GMT-0500 (Central Daylight Time),384333.3999999999,097_m_f_n_a.png,O,m,676,1,1,1695.1999999997206,382638.2000000002,9999,NNB,B,3
4,test,3,1.0,1-Back,1,z,Thu Sep 26 2024 15:34:23 GMT-0500 (Central Daylight Time),386532.7999999998,097_m_f_n_a.png,O,z,1176,1,1,2195.5999999996275,384337.2000000002,9999,NNB,B,4
5,test,3,0.0,1-Back,1,m,Thu Sep 26 2024 15:34:23 GMT-0500 (Central Daylight Time),388732.2000000002,110_o_f_n_a.png,O,m,1177,1,1,2195.4000000003725,386536.7999999998,9999,NNB,B,5
6,test,3,0.0,1-Back,1,m,Thu Sep 26 2024 15:34:23 GMT-0500 (Central Daylight Time),390548.2999999998,153_y_m_n_a.png,O,m,785,1,1,1812.6999999997206,388735.6000000001,9999,NNB,B,6
7,test,3,0.0,1-Back,1,m,Thu Sep 26 2024 15:34:23 GMT-0500 (Central Daylight Time),392631.1000000001,110_o_f_n_a.png,O,m,1058,1,1,2078.899999999907,390552.2000000002,9999,NNB,B,7
8,test,3,0.0,1-Back,1,m,Thu Sep 26 2024 15:34:23 GMT-0500 (Central Daylight Time),394513.6000000001,013_y_m_n_a.png,O,m,855,1,1,1878.7000000001863,392634.8999999999,9999,NNB,B,8
9,test,3,1.0,1-Back,1,z,Thu Sep 26 2024 15:34:23 GMT-0500 (Central Daylight Time),396229.6000000001,013_y_m_n_a.png,O,z,691,1,1,1712.3000000002794,394517.2999999998,9999,NNB,B,9
10,test,3,0.0,1-Back,1,m,Thu Sep 26 2024 15:34:23 GMT-0500 (Central Daylight Time),397995.7999999998,029_m_f_n_a.png,O,m,736,1,1,1762.3999999999069,396233.3999999999,9999,NNB,B,10
11,test,3,0.0,1-Back,1,m,Thu Sep 26 2024 15:34:23 GMT-0500 (Central Daylight Time),400011.8999999999,152_y_f_n_a.png,O,m,977,1,1,2012.0,397999.8999999999,9999,NNB,B,11
12,test,3,1.0,1-Back,1,z,Thu Sep 26 2024 15:34:23 GMT-0500 (Central Daylight Time),401744.6000000001,152_y_f_n_a.png,O,z,697,1,1,1728.3999999999069,400016.2000000002,9999,NNB,B,12
13,test,3,0.0,1-Back,1,m,Thu Sep 26 2024 15:34:23 GMT-0500 (Central Daylight Time),403844.1000000001,029_m_f_n_a.png,O,m,1076,1,1,2095.600000000093,401748.5,9999,NNB,B,13
14,test,3,0.0,1-Back,1,m,Thu Sep 26 2024 15:34:23 GMT-0500 (Central Daylight Time),405860.0,126_m_m_n_a.png,O,m,985,1,1,2011.7000000001863,403848.2999999998,9999,NNB,B,14
15,test,3,1.0,1-Back,1,z,Thu Sep 26 2024 15:34:23 GMT-0500 (Central Daylight Time),408092.7999999998,126_m_m_n_a.png,O,z,1200,1,1,2229.0,405863.7999999998,9999,NNB,B,15
16,test,3,0.0,1-Back,1,m,Thu Sep 26 2024 15:34:23 GMT-0500 (Central Daylight Time),410241.8999999999,086_o_f_n_a.png,O,m,1121,1,1,2145.399999999907,408096.5,9999,NNB,B,16
17,test,3,1.0,1-Back,1,z,Thu Sep 26 2024 15:34:23 GMT-0500 (Central Daylight Time),411958.0,086_o_f_n_a.png,O,z,692,1,1,1712.2999999998137,410245.7000000002,9999,NNB,B,17
0,test,4,1.0,1-Back,,,Thu Sep 26 2024 15:34:23 GMT-0500 (Central Daylight Time),411958.0,097_m_f_n_a.png,O,space,1247,1,1,1712.2999999998137,410245.7000000002,9999,NNB,B,0
1,test,4,0.0,1-Back,1,m,Thu Sep 26 2024 15:34:23 GMT-0500 (Central Daylight Time),417456.3999999999,065_o_m_n_a.png,O,m,1129,2,1,2145.2999999998137,415311.1000000001,9999,NNB,B,1
2,test,4,0.0,1-Back,1,m,Thu Sep 26 2024 15:34:23 GMT-0500 (Central Daylight Time),419338.8999999999,097_m_f_n_a.png,O,m,853,3,1,1878.5,417460.3999999999,9999,NNB,B,2
3,test,4,0.0,1-Back,1,m,Thu Sep 26 2024 15:34:23 GMT-0500 (Central Daylight Time),421256.2999999998,110_o_f_n_a.png,O,m,898,4,1,1913.5,419342.7999999998,9999,NNB,B,3
4,test,4,1.0,1-Back,1,z,Thu Sep 26 2024 15:34:23 GMT-0500 (Central Daylight Time),422954.7000000002,110_o_f_n_a.png,O,z,678,5,1,1694.6000000000931,421260.1000000001,9999,NNB,B,4
5,test,4,0.0,1-Back,1,m,Thu Sep 26 2024 15:34:23 GMT-0500 (Central Daylight Time),424871.0,152_y_f_n_a.png,O,m,884,6,1,1912.3999999999069,422958.6000000001,9999,NNB,B,5
6,test,4,0.0,1-Back,1,m,Thu Sep 26 2024 15:34:23 GMT-0500 (Central Daylight Time),426654.6000000001,153_y_m_n_a.png,O,m,750,7,1,1780.0,424874.6000000001,9999,NNB,B,6
7,test,4,1.0,1-Back,1,z,Thu Sep 26 2024 15:34:23 GMT-0500 (Central Daylight Time),428202.8999999999,153_y_m_n_a.png,O,z,520,8,1,1543.8999999999069,426659.0,9999,NNB,B,7
8,test,4,0.0,1-Back,1,m,Thu Sep 26 2024 15:34:23 GMT-0500 (Central Daylight Time),430352.7000000002,152_y_f_n_a.png,O,m,1122,9,1,2146.100000000093,428206.6000000001,9999,NNB,B,8
9,test,4,0.0,1-Back,1,m,Thu Sep 26 2024 15:34:23 GMT-0500 (Central Daylight Time),432085.2000000002,178_m_m_n_a.png,O,m,701,10,1,1728.6000000000931,430356.6000000001,9999,NNB,B,9
10,test,4,1.0,1-Back,1,z,Thu Sep 26 2024 15:34:23 GMT-0500 (Central Daylight Time),434900.5,178_m_m_n_a.png,O,z,1784,11,1,2811.2999999998137,432089.2000000002,9999,NNB,B,10
11,test,4,0.0,1-Back,1,m,Thu Sep 26 2024 15:34:23 GMT-0500 (Central Daylight Time),436650.2000000002,086_o_f_n_a.png,O,m,727,12,1,1745.6000000000931,434904.6000000001,9999,NNB,B,11
12,test,4,0.0,1-Back,1,m,Thu Sep 26 2024 15:34:23 GMT-0500 (Central Daylight Time),438716.2999999998,176_o_m_n_a.png,O,m,1044,13,1,2062.0999999996275,436654.2000000002,9999,NNB,B,12
13,test,4,0.0,1-Back,1,m,Thu Sep 26 2024 15:34:23 GMT-0500 (Central Daylight Time),440799.1000000001,086_o_f_n_a.png,O,m,1057,14,1,2078.399999999907,438720.7000000002,9999,NNB,B,13
14,test,4,0.0,1-Back,1,m,Thu Sep 26 2024 15:34:23 GMT-0500 (Central Daylight Time),442448.6000000001,173_y_f_n_a.png,O,m,630,15,1,1645.7000000001863,440802.8999999999,9999,NNB,B,14
15,test,4,1.0,1-Back,1,z,Thu Sep 26 2024 15:34:23 GMT-0500 (Central Daylight Time),444481.3999999999,173_y_f_n_a.png,O,z,1013,16,1,2028.6999999997206,442452.7000000002,9999,NNB,B,15
16,test,4,0.0,1-Back,1,m,Thu Sep 26 2024 15:34:23 GMT-0500 (Central Daylight Time),446197.2999999998,029_m_f_n_a.png,O,m,684,17,1,1712.5999999996275,444484.7000000002,9999,NNB,B,16
17,test,4,1.0,1-Back,1,z,Thu Sep 26 2024 15:34:23 GMT-0500 (Central Daylight Time),448996.7000000002,029_m_f_n_a.png,O,z,1777,18,1,2795.2000000001863,446201.5,9999,NNB,B,17
0,test,5,1.0,1-Back,,,Thu Sep 26 2024 15:34:23 GMT-0500 (Central Daylight Time),448996.7000000002,176_o_m_n_a.png,O,space,1209,1,1,2795.2000000001863,446201.5,9999,NNB,B,0
1,test,5,1.0,1-Back,1,z,Thu Sep 26 2024 15:34:23 GMT-0500 (Central Daylight Time),454428.1000000001,176_o_m_n_a.png,O,z,1176,2,1,2195.600000000093,452232.5,9999,NNB,B,1
2,test,5,0.0,1-Back,1,m,Thu Sep 26 2024 15:34:23 GMT-0500 (Central Daylight Time),456878.8999999999,152_y_f_n_a.png,O,m,1425,3,1,2447.5,454431.3999999999,9999,NNB,B,2
3,test,5,0.0,1-Back,1,m,Thu Sep 26 2024 15:34:23 GMT-0500 (Central Daylight Time),459476.6000000001,153_y_m_n_a.png,O,m,1577,4,1,2594.3000000002794,456882.2999999998,9999,NNB,B,3
4,test,5,0.0,1-Back,1,m,Thu Sep 26 2024 15:34:23 GMT-0500 (Central Daylight Time),461376.0,152_y_f_n_a.png,O,m,873,5,1,1895.0,459481.0,9999,NNB,B,4
5,test,5,0.0,1-Back,1,m,Thu Sep 26 2024 15:34:23 GMT-0500 (Central Daylight Time),463575.2999999998,126_m_m_n_a.png,O,m,1173,6,1,2195.2999999998137,461380.0,9999,NNB,B,5
6,test,5,1.0,1-Back,1,z,Thu Sep 26 2024 15:34:23 GMT-0500 (Central Daylight Time),465441.5,126_m_m_n_a.png,O,z,829,7,1,1862.7000000001863,463578.7999999998,9999,NNB,B,6
7,test,5,0.0,1-Back,1,m,Thu Sep 26 2024 15:34:23 GMT-0500 (Central Daylight Time),467390.8999999999,173_y_f_n_a.png,O,m,916,8,1,1945.0,465445.8999999999,9999,NNB,B,7
8,test,5,0.0,1-Back,1,m,Thu Sep 26 2024 15:34:23 GMT-0500 (Central Daylight Time),469440.2999999998,013_y_m_n_a.png,O,m,1023,9,1,2046.2999999998137,467394.0,9999,NNB,B,8
9,test,5,0.0,1-Back,1,m,Thu Sep 26 2024 15:34:23 GMT-0500 (Central Daylight Time),471572.5,173_y_f_n_a.png,O,m,1110,10,1,2128.600000000093,469443.8999999999,9999,NNB,B,9
10,test,5,0.0,1-Back,1,m,Thu Sep 26 2024 15:34:23 GMT-0500 (Central Daylight Time),473439.1000000001,086_o_f_n_a.png,O,m,834,11,1,1862.7000000001863,471576.3999999999,9999,NNB,B,10
11,test,5,1.0,1-Back,1,z,Thu Sep 26 2024 15:34:23 GMT-0500 (Central Daylight Time),475155.0,086_o_f_n_a.png,O,z,687,12,1,1712.0,473443.0,9999,NNB,B,11
12,test,5,0.0,1-Back,1,m,Thu Sep 26 2024 15:34:23 GMT-0500 (Central Daylight Time),476904.5,065_o_m_n_a.png,O,m,722,13,1,1746.5,475158.0,9999,NNB,B,12
13,test,5,0.0,1-Back,1,m,Thu Sep 26 2024 15:34:23 GMT-0500 (Central Daylight Time),478970.2999999998,097_m_f_n_a.png,O,m,1045,14,1,2062.1999999997206,476908.1000000001,9999,NNB,B,13
14,test,5,1.0,1-Back,1,z,Thu Sep 26 2024 15:34:23 GMT-0500 (Central Daylight Time),480603.0,097_m_f_n_a.png,O,z,611,15,1,1629.2999999998137,478973.7000000002,9999,NNB,B,14
15,test,5,0.0,1-Back,1,m,Thu Sep 26 2024 15:34:23 GMT-0500 (Central Daylight Time),482269.2000000002,065_o_m_n_a.png,O,m,634,16,1,1662.6000000000931,480606.6000000001,9999,NNB,B,15
16,test,5,0.0,1-Back,1,m,Thu Sep 26 2024 15:34:23 GMT-0500 (Central Daylight Time),484268.8999999999,029_m_f_n_a.png,O,m,862,17,1,1995.6000000000931,482273.2999999998,9999,NNB,B,16
17,test,5,0.0,1-Back,1,m,Thu Sep 26 2024 15:34:23 GMT-0500 (Central Daylight Time),485785.1000000001,178_m_m_n_a.png,O,m,497,18,1,1513.0,484272.1000000001,9999,NNB,B,17
0,prac,1,0.0,2-Back,,,Thu Sep 26 2024 15:34:23 GMT-0500 (Central Daylight Time),485785.1000000001,013_y_m_n_a.png,O,space,21655,1,1,1513.0,484272.1000000001,9999,NNB,B,0
0,prac,1,0.0,2-Back,,,Thu Sep 26 2024 15:34:23 GMT-0500 (Central Daylight Time),485785.1000000001,029_m_f_n_a.png,O,space,21655,2,1,1513.0,484272.1000000001,9999,NNB,B,0
1,prac,1,1.0,2-Back,1,m,Thu Sep 26 2024 15:34:23 GMT-0500 (Central Daylight Time),650816.8999999999,065_o_m_n_a.png,O,m,1452,3,1,2325.7999999998137,648491.1000000001,9999,NNB,B,1
2,prac,1,0.0,2-Back,1,m,Thu Sep 26 2024 15:34:23 GMT-0500 (Central Daylight Time),653299.2999999998,086_o_f_n_a.png,O,m,1580,4,1,2476.399999999907,650822.8999999999,9999,NNB,B,2
3,prac,1,0.0,2-Back,1,z,Thu Sep 26 2024 15:34:23 GMT-0500 (Central Daylight Time),655348.6000000001,065_o_m_n_a.png,O,z,1268,5,1,2043.3000000002794,653305.2999999998,9999,NNB,B,3
4,prac,1,1.0,2-Back,1,z,Thu Sep 26 2024 15:34:23 GMT-0500 (Central Daylight Time),657864.7999999998,086_o_f_n_a.png,O,z,1731,6,1,2510.5,655354.2999999998,9999,NNB,B,4
5,prac,1,0.0,2-Back,1,m,Thu Sep 26 2024 15:34:23 GMT-0500 (Central Daylight Time),660146.8999999999,178_m_m_n_a.png,O,m,1403,7,1,2277.100000000093,657869.7999999998,9999,NNB,B,5
6,prac,1,0.0,2-Back,1,m,Thu Sep 26 2024 15:34:23 GMT-0500 (Central Daylight Time),662179.6000000001,176_o_m_n_a.png,O,m,1149,8,1,2027.6000000000931,660152.0,9999,NNB,B,6
7,prac,1,0.0,2-Back,1,m,Thu Sep 26 2024 15:34:23 GMT-0500 (Central Daylight Time),664379.7999999998,173_y_f_n_a.png,O,m,1321,9,1,2183.1999999997206,662196.6000000001,9999,NNB,B,7
8,prac,1,1.0,2-Back,1,z,Thu Sep 26 2024 15:34:23 GMT-0500 (Central Daylight Time),666545.0,176_o_m_n_a.png,O,z,1381,10,1,2160.0,664385.0,9999,NNB,B,8
9,prac,1,0.0,2-Back,1,m,Thu Sep 26 2024 15:34:23 GMT-0500 (Central Daylight Time),668544.3999999999,152_y_f_n_a.png,O,m,1127,11,1,1993.7999999998137,666550.6000000001,9999,NNB,B,9
10,prac,1,0.0,2-Back,1,m,Thu Sep 26 2024 15:34:23 GMT-0500 (Central Daylight Time),671077.2000000002,178_m_m_n_a.png,O,m,1744,12,1,2527.4000000003725,668549.7999999998,9999,NNB,B,10
0,test,1,0.0,2-Back,,,Thu Sep 26 2024 15:34:23 GMT-0500 (Central Daylight Time),671077.2000000002,153_y_m_n_a.png,O,space,25726,1,1,2527.4000000003725,668549.7999999998,9999,NNB,B,0
0,test,1,0.0,2-Back,,,Thu Sep 26 2024 15:34:23 GMT-0500 (Central Daylight Time),671077.2000000002,153_y_m_n_a.png,O,space,25726,2,1,2527.4000000003725,668549.7999999998,9999,NNB,B,0
1,test,1,0.0,2-Back,1,m,Thu Sep 26 2024 15:34:23 GMT-0500 (Central Daylight Time),713163.6000000001,086_o_f_n_a.png,O,m,1219,3,1,2245.2000000001863,710918.3999999999,9999,NNB,B,1
2,test,1,0.0,2-Back,1,m,Thu Sep 26 2024 15:34:23 GMT-0500 (Central Daylight Time),715229.7999999998,126_m_m_n_a.png,O,m,1042,4,1,2062.5,713167.2999999998,9999,NNB,B,2
3,test,1,1.0,2-Back,1,z,Thu Sep 26 2024 15:34:23 GMT-0500 (Central Daylight Time),717278.8999999999,086_o_f_n_a.png,O,z,1033,5,1,2045.1000000000931,715233.7999999998,9999,NNB,B,3
4,test,1,0.0,2-Back,1,m,Thu Sep 26 2024 15:34:23 GMT-0500 (Central Daylight Time),719263.0,152_y_f_n_a.png,O,m,958,6,1,1981.2000000001863,717281.7999999998,9999,NNB,B,4
5,test,1,0.0,2-Back,1,m,Thu Sep 26 2024 15:34:23 GMT-0500 (Central Daylight Time),721594.2999999998,126_m_m_n_a.png,O,m,1304,7,1,2327.0999999996275,719267.2000000002,9999,NNB,B,5
6,test,1,1.0,2-Back,1,z,Thu Sep 26 2024 15:34:23 GMT-0500 (Central Daylight Time),723460.2999999998,152_y_f_n_a.png,O,z,843,8,1,1862.2999999998137,721598.0,9999,NNB,B,6
7,test,1,0.0,2-Back,1,m,Thu Sep 26 2024 15:34:23 GMT-0500 (Central Daylight Time),725526.5,013_y_m_n_a.png,O,m,1033,9,1,2062.5,723464.0,9999,NNB,B,7
8,test,1,0.0,2-Back,1,m,Thu Sep 26 2024 15:34:23 GMT-0500 (Central Daylight Time),727642.3999999999,110_o_f_n_a.png,O,m,1087,10,1,2112.1999999997206,725530.2000000002,9999,NNB,B,8
9,test,1,1.0,2-Back,1,z,Thu Sep 26 2024 15:34:23 GMT-0500 (Central Daylight Time),729375.2999999998,013_y_m_n_a.png,O,z,707,11,1,1729.1999999997206,727646.1000000001,9999,NNB,B,9
10,test,1,0.0,2-Back,1,m,Thu Sep 26 2024 15:34:23 GMT-0500 (Central Daylight Time),731358.0,029_m_f_n_a.png,O,m,950,12,1,1979.1000000000931,729378.8999999999,9999,NNB,B,10
11,test,1,0.0,2-Back,1,m,Thu Sep 26 2024 15:34:23 GMT-0500 (Central Daylight Time),733557.2000000002,029_m_f_n_a.png,O,m,1175,13,1,2195.4000000003725,731361.7999999998,9999,NNB,B,11
12,test,1,0.0,2-Back,1,m,Thu Sep 26 2024 15:34:23 GMT-0500 (Central Daylight Time),736539.5,065_o_m_n_a.png,O,m,1951,14,1,2979.100000000093,733560.3999999999,9999,NNB,B,12
13,test,1,0.0,2-Back,1,m,Thu Sep 26 2024 15:34:23 GMT-0500 (Central Daylight Time),738622.2000000002,110_o_f_n_a.png,O,m,1050,15,1,2079.2000000001863,736543.0,9999,NNB,B,13
14,test,1,1.0,2-Back,1,z,Thu Sep 26 2024 15:34:23 GMT-0500 (Central Daylight Time),740355.1000000001,065_o_m_n_a.png,O,z,703,16,1,1729.1000000000931,738626.0,9999,NNB,B,14
15,test,1,0.0,2-Back,1,m,Thu Sep 26 2024 15:34:23 GMT-0500 (Central Daylight Time),742249.2000000002,097_m_f_n_a.png,O,m,877,17,1,1890.2000000001863,740359.0,9999,NNB,B,15
16,test,1,0.0,2-Back,1,m,Thu Sep 26 2024 15:34:23 GMT-0500 (Central Daylight Time),744470.5,178_m_m_n_a.png,O,m,1215,18,1,2217.399999999907,742253.1000000001,9999,NNB,B,16
0,test,2,0.0,2-Back,,,Thu Sep 26 2024 15:34:23 GMT-0500 (Central Daylight Time),744470.5,178_m_m_n_a.png,O,space,1415,1,1,2217.399999999907,742253.1000000001,9999,NNB,B,0
0,test,2,0.0,2-Back,,,Thu Sep 26 2024 15:34:23 GMT-0500 (Central Daylight Time),744470.5,173_y_f_n_a.png,O,space,1415,2,1,2217.399999999907,742253.1000000001,9999,NNB,B,0
1,test,2,1.0,2-Back,1,z,Thu Sep 26 2024 15:34:23 GMT-0500 (Central Daylight Time),753334.3999999999,178_m_m_n_a.png,O,z,1299,3,1,2311.7999999998137,751022.6000000001,9999,NNB,B,1
2,test,2,0.0,2-Back,1,m,Thu Sep 26 2024 15:34:23 GMT-0500 (Central Daylight Time),755233.7000000002,097_m_f_n_a.png,O,m,871,4,1,1895.8000000002794,753337.8999999999,9999,NNB,B,2
3,test,2,0.0,2-Back,1,m,Thu Sep 26 2024 15:34:23 GMT-0500 (Central Daylight Time),757116.6000000001,173_y_f_n_a.png,O,m,860,5,1,1878.8999999999069,755237.7000000002,9999,NNB,B,3
4,test,2,0.0,2-Back,1,m,Thu Sep 26 2024 15:34:23 GMT-0500 (Central Daylight Time),758932.5,065_o_m_n_a.png,O,m,784,6,1,1812.1000000000931,757120.3999999999,9999,NNB,B,4
5,test,2,0.0,2-Back,1,m,Thu Sep 26 2024 15:34:23 GMT-0500 (Central Daylight Time),760898.7000000002,152_y_f_n_a.png,O,m,937,7,1,1962.4000000003725,758936.2999999998,9999,NNB,B,5
6,test,2,1.0,2-Back,1,z,Thu Sep 26 2024 15:34:23 GMT-0500 (Central Daylight Time),762664.7000000002,065_o_m_n_a.png,O,z,739,8,1,1762.3000000002794,760902.3999999999,9999,NNB,B,6
7,test,2,0.0,2-Back,1,m,Thu Sep 26 2024 15:34:23 GMT-0500 (Central Daylight Time),765113.7999999998,013_y_m_n_a.png,O,m,1422,9,1,2445.1999999997206,762668.6000000001,9999,NNB,B,7
7,test,2,0.0,2-Back,0,m,Thu Sep 26 2024 15:34:23 GMT-0500 (Central Daylight Time),768146.6000000001,013_y_m_n_a.png,O,None,2014,10,1,3028.899999999907,765117.7000000002,9999,NNB,B,8
8,test,2,0.0,2-Back,1,m,Thu Sep 26 2024 15:34:23 GMT-0500 (Central Daylight Time),771162.0,029_m_f_n_a.png,O,m,1995,11,1,3012.2999999998137,768149.7000000002,9999,NNB,B,9
9,test,2,0.0,2-Back,1,m,Thu Sep 26 2024 15:34:23 GMT-0500 (Central Daylight Time),773928.0,173_y_f_n_a.png,O,m,1747,12,1,2762.7999999998137,771165.2000000002,9999,NNB,B,10
10,test,2,1.0,2-Back,1,z,Thu Sep 26 2024 15:34:23 GMT-0500 (Central Daylight Time),775810.7000000002,029_m_f_n_a.png,O,z,863,13,1,1879.6000000000931,773931.1000000001,9999,NNB,B,11
11,test,2,0.0,2-Back,1,m,Thu Sep 26 2024 15:34:23 GMT-0500 (Central Daylight Time),778326.3999999999,176_o_m_n_a.png,O,m,1483,14,1,2512.100000000093,775814.2999999998,9999,NNB,B,12
11,test,2,0.0,2-Back,0,m,Thu Sep 26 2024 15:34:23 GMT-0500 (Central Daylight Time),781359.0,176_o_m_n_a.png,O,None,2016,15,1,3029.0,778330.0,9999,NNB,B,13
12,test,2,0.0,2-Back,1,m,Thu Sep 26 2024 15:34:23 GMT-0500 (Central Daylight Time),783941.5,110_o_f_n_a.png,O,m,1558,16,1,2578.899999999907,781362.6000000001,9999,NNB,B,14
13,test,2,0.0,2-Back,1,m,Thu Sep 26 2024 15:34:23 GMT-0500 (Central Daylight Time),786608.2999999998,126_m_m_n_a.png,O,m,1648,17,1,2663.0,783945.2999999998,9999,NNB,B,15
14,test,2,1.0,2-Back,1,z,Thu Sep 26 2024 15:34:23 GMT-0500 (Central Daylight Time),788356.6000000001,110_o_f_n_a.png,O,z,718,18,1,1744.1000000000931,786612.5,9999,NNB,B,16
0,test,3,1.0,2-Back,,,Thu Sep 26 2024 15:34:23 GMT-0500 (Central Daylight Time),788356.6000000001,153_y_m_n_a.png,O,space,1833,1,1,1744.1000000000931,786612.5,9999,NNB,B,0
0,test,3,1.0,2-Back,,,Thu Sep 26 2024 15:34:23 GMT-0500 (Central Daylight Time),788356.6000000001,153_y_m_n_a.png,O,space,1833,2,1,1744.1000000000931,786612.5,9999,NNB,B,0
1,test,3,0.0,2-Back,1,m,Thu Sep 26 2024 15:34:23 GMT-0500 (Central Daylight Time),797687.0,110_o_f_n_a.png,O,m,1325,3,1,2345.100000000093,795341.8999999999,9999,NNB,B,1
2,test,3,0.0,2-Back,1,m,Thu Sep 26 2024 15:34:23 GMT-0500 (Central Daylight Time),799570.0,178_m_m_n_a.png,O,m,863,4,1,1879.2999999998137,797690.7000000002,9999,NNB,B,2
3,test,3,1.0,2-Back,1,z,Thu Sep 26 2024 15:34:23 GMT-0500 (Central Daylight Time),801402.6000000001,110_o_f_n_a.png,O,z,813,5,1,1829.3000000002794,799573.2999999998,9999,NNB,B,3
4,test,3,0.0,2-Back,1,m,Thu Sep 26 2024 15:34:23 GMT-0500 (Central Daylight Time),803202.0,013_y_m_n_a.png,O,m,771,6,1,1795.7999999998137,801406.2000000002,9999,NNB,B,4
4,test,3,0.0,2-Back,0,m,Thu Sep 26 2024 15:34:23 GMT-0500 (Central Daylight Time),805335.0,178_m_m_n_a.png,O,z,1100,7,1,2129.2000000001863,803205.7999999998,9999,NNB,B,5
5,test,3,1.0,2-Back,1,z,Thu Sep 26 2024 15:34:23 GMT-0500 (Central Daylight Time),808017.2000000002,013_y_m_n_a.png,O,z,1663,8,1,2678.5,805338.7000000002,9999,NNB,B,6
6,test,3,0.0,2-Back,1,m,Thu Sep 26 2024 15:34:23 GMT-0500 (Central Daylight Time),810349.7999999998,173_y_f_n_a.png,O,m,1308,9,1,2328.7999999998137,808021.0,9999,NNB,B,7
7,test,3,0.0,2-Back,1,m,Thu Sep 26 2024 15:34:23 GMT-0500 (Central Daylight Time),812861.2999999998,126_m_m_n_a.png,O,m,1478,10,1,2507.7999999998137,810353.5,9999,NNB,B,8
7,test,3,1.0,2-Back,0,z,Thu Sep 26 2024 15:34:23 GMT-0500 (Central Daylight Time),815348.3999999999,173_y_f_n_a.png,O,m,1452,11,1,2483.399999999907,812865.0,9999,NNB,B,9
8,test,3,1.0,2-Back,1,z,Thu Sep 26 2024 15:34:23 GMT-0500 (Central Daylight Time),817347.6000000001,126_m_m_n_a.png,O,z,978,12,1,1995.7000000001863,815351.8999999999,9999,NNB,B,10
9,test,3,0.0,2-Back,1,m,Thu Sep 26 2024 15:34:23 GMT-0500 (Central Daylight Time),819197.1000000001,110_o_f_n_a.png,O,m,827,13,1,1846.5,817350.6000000001,9999,NNB,B,11
10,test,3,0.0,2-Back,1,m,Thu Sep 26 2024 15:34:23 GMT-0500 (Central Daylight Time),821679.5,097_m_f_n_a.png,O,m,1464,14,1,2479.2000000001863,819200.2999999998,9999,NNB,B,12
11,test,3,0.0,2-Back,1,m,Thu Sep 26 2024 15:34:23 GMT-0500 (Central Daylight Time),823745.3999999999,065_o_m_n_a.png,O,m,1038,15,1,2063.0,821682.3999999999,9999,NNB,B,13
12,test,3,1.0,2-Back,1,z,Thu Sep 26 2024 15:34:23 GMT-0500 (Central Daylight Time),826628.1000000001,097_m_f_n_a.png,O,z,1860,16,1,2879.0,823749.1000000001,9999,NNB,B,14
12,test,3,0.0,2-Back,0,m,Thu Sep 26 2024 15:34:23 GMT-0500 (Central Daylight Time),829660.5,086_o_f_n_a.png,O,None,2015,17,1,3029.399999999907,826631.1000000001,9999,NNB,B,15
12,test,3,0.0,2-Back,0,m,Thu Sep 26 2024 15:34:23 GMT-0500 (Central Daylight Time),831759.7000000002,086_o_f_n_a.png,O,z,1073,18,1,2095.600000000093,829664.1000000001,9999,NNB,B,16
0,test,4,0.0,2-Back,,,Thu Sep 26 2024 15:34:23 GMT-0500 (Central Daylight Time),831759.7000000002,176_o_m_n_a.png,O,space,5294,1,1,2095.600000000093,829664.1000000001,9999,NNB,B,0
0,test,4,0.0,2-Back,,,Thu Sep 26 2024 15:34:23 GMT-0500 (Central Daylight Time),831759.7000000002,152_y_f_n_a.png,O,space,5294,2,1,2095.600000000093,829664.1000000001,9999,NNB,B,0
0,test,4,1.0,2-Back,0,z,Thu Sep 26 2024 15:34:23 GMT-0500 (Central Daylight Time),844572.2999999998,176_o_m_n_a.png,O,m,1260,3,1,2277.5999999996275,842294.7000000002,9999,NNB,B,1
1,test,4,1.0,2-Back,1,z,Thu Sep 26 2024 15:34:23 GMT-0500 (Central Daylight Time),846571.8999999999,152_y_f_n_a.png,O,z,969,4,1,1995.3999999999069,844576.5,9999,NNB,B,2
2,test,4,0.0,2-Back,1,m,Thu Sep 26 2024 15:34:23 GMT-0500 (Central Daylight Time),848654.3999999999,110_o_f_n_a.png,O,m,1049,5,1,2079.0,846575.3999999999,9999,NNB,B,3
3,test,4,0.0,2-Back,1,m,Thu Sep 26 2024 15:34:23 GMT-0500 (Central Daylight Time),851086.7999999998,110_o_f_n_a.png,O,m,1400,6,1,2428.7999999998137,848658.0,9999,NNB,B,4
4,test,4,0.0,2-Back,1,m,Thu Sep 26 2024 15:34:23 GMT-0500 (Central Daylight Time),853569.5,029_m_f_n_a.png,O,m,1454,7,1,2478.7999999998137,851090.7000000002,9999,NNB,B,5
5,test,4,0.0,2-Back,1,m,Thu Sep 26 2024 15:34:23 GMT-0500 (Central Daylight Time),855535.7000000002,013_y_m_n_a.png,O,m,940,8,1,1962.4000000003725,853573.2999999998,9999,NNB,B,6
6,test,4,1.0,2-Back,1,z,Thu Sep 26 2024 15:34:23 GMT-0500 (Central Daylight Time),857201.6000000001,029_m_f_n_a.png,O,z,638,9,1,1662.2000000001863,855539.3999999999,9999,NNB,B,7
7,test,4,0.0,2-Back,1,m,Thu Sep 26 2024 15:34:23 GMT-0500 (Central Daylight Time),858967.7999999998,126_m_m_n_a.png,O,m,739,10,1,1762.6999999997206,857205.1000000001,9999,NNB,B,8
7,test,4,0.0,2-Back,0,m,Thu Sep 26 2024 15:34:23 GMT-0500 (Central Daylight Time),860850.5,013_y_m_n_a.png,O,z,861,11,1,1879.2000000001863,858971.2999999998,9999,NNB,B,9
8,test,4,0.0,2-Back,1,m,Thu Sep 26 2024 15:34:23 GMT-0500 (Central Daylight Time),863449.7999999998,086_o_f_n_a.png,O,m,1571,12,1,2595.5,860854.2999999998,9999,NNB,B,10
9,test,4,0.0,2-Back,1,m,Thu Sep 26 2024 15:34:23 GMT-0500 (Central Daylight Time),865265.7999999998,153_y_m_n_a.png,O,m,787,13,1,1812.7999999998137,863453.0,9999,NNB,B,11
10,test,4,1.0,2-Back,1,z,Thu Sep 26 2024 15:34:23 GMT-0500 (Central Daylight Time),866765.5,086_o_f_n_a.png,O,z,467,14,1,1495.7999999998137,865269.7000000002,9999,NNB,B,12
11,test,4,1.0,2-Back,1,z,Thu Sep 26 2024 15:34:23 GMT-0500 (Central Daylight Time),868614.8999999999,153_y_m_n_a.png,O,z,825,15,1,1845.6999999997206,866769.2000000002,9999,NNB,B,13
12,test,4,0.0,2-Back,1,m,Thu Sep 26 2024 15:34:23 GMT-0500 (Central Daylight Time),870614.2999999998,178_m_m_n_a.png,O,m,966,16,1,1995.6999999997206,868618.6000000001,9999,NNB,B,14
13,test,4,0.0,2-Back,1,m,Thu Sep 26 2024 15:34:23 GMT-0500 (Central Daylight Time),872413.6000000001,097_m_f_n_a.png,O,m,767,17,1,1795.3999999999069,870618.2000000002,9999,NNB,B,15
14,test,4,1.0,2-Back,1,z,Thu Sep 26 2024 15:34:23 GMT-0500 (Central Daylight Time),874146.6000000001,178_m_m_n_a.png,O,z,713,18,1,1729.2000000001863,872417.3999999999,9999,NNB,B,16
0,test,5,1.0,2-Back,,,Thu Sep 26 2024 15:34:23 GMT-0500 (Central Daylight Time),874146.6000000001,153_y_m_n_a.png,O,space,1219,1,1,1729.2000000001863,872417.3999999999,9999,NNB,B,0
0,test,5,1.0,2-Back,,,Thu Sep 26 2024 15:34:23 GMT-0500 (Central Daylight Time),874146.6000000001,097_m_f_n_a.png,O,space,1219,2,1,1729.2000000001863,872417.3999999999,9999,NNB,B,0
1,test,5,1.0,2-Back,1,z,Thu Sep 26 2024 15:34:23 GMT-0500 (Central Daylight Time),882361.7000000002,153_y_m_n_a.png,O,z,906,3,1,1928.7000000001863,880433.0,9999,NNB,B,1
2,test,5,1.0,2-Back,1,z,Thu Sep 26 2024 15:34:23 GMT-0500 (Central Daylight Time),884726.3999999999,097_m_f_n_a.png,O,z,1313,4,1,2360.899999999907,882365.5,9999,NNB,B,2
3,test,5,0.0,2-Back,1,m,Thu Sep 26 2024 15:34:23 GMT-0500 (Central Daylight Time),886542.6000000001,086_o_f_n_a.png,O,m,799,5,1,1812.5,884730.1000000001,9999,NNB,B,3
4,test,5,0.0,2-Back,1,m,Thu Sep 26 2024 15:34:23 GMT-0500 (Central Daylight Time),889241.5,153_y_m_n_a.png,O,m,1679,6,1,2695.600000000093,886545.8999999999,9999,NNB,B,4
5,test,5,0.0,2-Back,1,m,Thu Sep 26 2024 15:34:23 GMT-0500 (Central Daylight Time),891141.1000000001,173_y_f_n_a.png,O,m,868,7,1,1896.6000000000931,889244.5,9999,NNB,B,5
5,test,5,0.0,2-Back,0,m,Thu Sep 26 2024 15:34:23 GMT-0500 (Central Daylight Time),893323.7000000002,086_o_f_n_a.png,O,z,1159,8,1,2179.4000000003725,891144.2999999998,9999,NNB,B,6
5,test,5,1.0,2-Back,0,z,Thu Sep 26 2024 15:34:23 GMT-0500 (Central Daylight Time),896006.2999999998,173_y_f_n_a.png,O,m,1659,9,1,2678.899999999907,893327.3999999999,9999,NNB,B,7
6,test,5,0.0,2-Back,1,m,Thu Sep 26 2024 15:34:23 GMT-0500 (Central Daylight Time),898605.3999999999,065_o_m_n_a.png,O,m,1567,10,1,2595.399999999907,896010.0,9999,NNB,B,8
7,test,5,0.0,2-Back,1,m,Thu Sep 26 2024 15:34:23 GMT-0500 (Central Daylight Time),900388.2000000002,029_m_f_n_a.png,O,m,761,11,1,1778.9000000003725,898609.2999999998,9999,NNB,B,9
8,test,5,0.0,2-Back,1,m,Thu Sep 26 2024 15:34:23 GMT-0500 (Central Daylight Time),902637.3999999999,126_m_m_n_a.png,O,m,1217,12,1,2245.5,900391.8999999999,9999,NNB,B,10
8,test,5,0.0,2-Back,0,m,Thu Sep 26 2024 15:34:23 GMT-0500 (Central Daylight Time),904620.2000000002,065_o_m_n_a.png,O,z,953,13,1,1979.1000000000931,902641.1000000001,9999,NNB,B,11
9,test,5,1.0,2-Back,1,z,Thu Sep 26 2024 15:34:23 GMT-0500 (Central Daylight Time),906995.7000000002,126_m_m_n_a.png,O,z,1328,14,1,2371.9000000003725,904623.7999999998,9999,NNB,B,12
10,test,5,0.0,2-Back,1,m,Thu Sep 26 2024 15:34:23 GMT-0500 (Central Daylight Time),908702.2999999998,152_y_f_n_a.png,O,m,683,15,1,1702.5999999996275,906999.7000000002,9999,NNB,B,13
11,test,5,0.0,2-Back,1,m,Thu Sep 26 2024 15:34:23 GMT-0500 (Central Daylight Time),910518.5,176_o_m_n_a.png,O,m,783,16,1,1812.3999999999069,908706.1000000001,9999,NNB,B,14
12,test,5,0.0,2-Back,1,m,Thu Sep 26 2024 15:34:23 GMT-0500 (Central Daylight Time),912417.6000000001,029_m_f_n_a.png,O,m,872,17,1,1895.5,910522.1000000001,9999,NNB,B,15
13,test,5,1.0,2-Back,1,z,Thu Sep 26 2024 15:34:23 GMT-0500 (Central Daylight Time),914217.1000000001,176_o_m_n_a.png,O,z,779,18,1,1795.8999999999069,912421.2000000002,9999,NNB,B,16
