acc_sum,block,block_c,change,condition,correct,correct_response,datetime,endtime,face,project,response,response_time,row_sel,session_number,start_end,starttime,subject_id,task,task_vers,trial
0,prac,1,,1-Back,,,Wed Sep 04 2024 14:02:30 GMT-0500 (Central Daylight Time),,050_m_f_n_a.png,O,space,7576,1,1,,,7004,NNB,A,0
0,prac,1,0.0,1-Back,0,m,Wed Sep 04 2024 14:02:30 GMT-0500 (Central Daylight Time),141191.79999995232,063_y_f_n_a.png,O,z,1574,2,1,2359.2000000476837,138832.59999990463,7004,NNB,A,1
1,prac,1,1.0,1-Back,1,z,Wed Sep 04 2024 14:02:30 GMT-0500 (Central Daylight Time),143296.5,063_y_f_n_a.png,O,z,1333,3,1,2092.2000000476837,141204.29999995232,7004,NNB,A,2
2,prac,1,0.0,1-Back,1,m,Wed Sep 04 2024 14:02:30 GMT-0500 (Central Daylight Time),145283.29999995232,053_o_m_n_a.png,O,m,1184,4,1,1975.7999999523163,143307.5,7004,NNB,A,3
3,prac,1,0.0,1-Back,1,m,Wed Sep 04 2024 14:02:30 GMT-0500 (Central Daylight Time),146970.59999990463,058_m_m_n_a.png,O,m,869,5,1,1676.1999999284744,145294.39999997616,7004,NNB,A,4
4,prac,1,1.0,1-Back,1,z,Wed Sep 04 2024 14:02:30 GMT-0500 (Central Daylight Time),148590.0,058_m_m_n_a.png,O,z,845,6,1,1609.1000000238419,146980.89999997616,7004,NNB,A,5
5,prac,1,0.0,1-Back,1,m,Wed Sep 04 2024 14:02:30 GMT-0500 (Central Daylight Time),150694.89999997616,047_o_f_n_a.png,O,m,1262,7,1,2093.3000000715256,148601.59999990463,7004,NNB,A,6
6,prac,1,0.0,1-Back,1,m,Wed Sep 04 2024 14:02:30 GMT-0500 (Central Daylight Time),152463.29999995232,045_m_m_n_a.png,O,m,979,8,1,1757.1000000238419,150706.19999992847,7004,NNB,A,7
7,prac,1,0.0,1-Back,1,m,Wed Sep 04 2024 14:02:30 GMT-0500 (Central Daylight Time),154066.69999992847,050_m_f_n_a.png,O,m,843,9,1,1595.8999999761581,152470.79999995232,7004,NNB,A,8
8,prac,1,1.0,1-Back,1,z,Wed Sep 04 2024 14:02:30 GMT-0500 (Central Daylight Time),155620.39999997616,050_m_f_n_a.png,O,z,784,10,1,1547.7000000476837,154072.69999992847,7004,NNB,A,9
9,prac,1,0.0,1-Back,1,m,Wed Sep 04 2024 14:02:30 GMT-0500 (Central Daylight Time),157373.19999992847,053_o_m_n_a.png,O,m,961,11,1,1740.6999999284744,155632.5,7004,NNB,A,10
10,prac,1,0.0,1-Back,1,m,Wed Sep 04 2024 14:02:30 GMT-0500 (Central Daylight Time),159210.79999995232,010_y_f_n_a.png,O,m,1011,12,1,1826.2999999523163,157384.5,7004,NNB,A,11
0,test,1,0.0,1-Back,,,Wed Sep 04 2024 14:02:30 GMT-0500 (Central Daylight Time),159210.79999995232,063_y_f_n_a.png,O,space,13209,1,1,1826.2999999523163,157384.5,7004,NNB,A,0
1,test,1,0.0,1-Back,1,m,Wed Sep 04 2024 14:02:30 GMT-0500 (Central Daylight Time),182956.59999990463,043_m_f_n_a.png,O,m,657,2,1,1674.7999999523163,181281.79999995232,7004,NNB,A,1
2,test,1,0.0,1-Back,1,m,Wed Sep 04 2024 14:02:30 GMT-0500 (Central Daylight Time),184960.59999990463,010_y_f_n_a.png,O,m,970,3,1,1993.5999999046326,182967.0,7004,NNB,A,2
3,test,1,1.0,1-Back,1,z,Wed Sep 04 2024 14:02:30 GMT-0500 (Central Daylight Time),186729.89999997616,010_y_f_n_a.png,O,z,735,4,1,1759.7000000476837,184970.19999992847,7004,NNB,A,3
4,test,1,0.0,1-Back,1,m,Wed Sep 04 2024 14:02:30 GMT-0500 (Central Daylight Time),188417.5,043_m_f_n_a.png,O,m,652,5,1,1679.0,186738.5,7004,NNB,A,4
5,test,1,0.0,1-Back,1,m,Wed Sep 04 2024 14:02:30 GMT-0500 (Central Daylight Time),190203.89999997616,053_o_m_n_a.png,O,m,759,6,1,1778.2000000476837,188425.69999992847,7004,NNB,A,5
6,test,1,1.0,1-Back,1,z,Wed Sep 04 2024 14:02:30 GMT-0500 (Central Daylight Time),191906.59999990463,053_o_m_n_a.png,O,z,683,7,1,1691.7999999523163,190214.79999995232,7004,NNB,A,6
7,test,1,0.0,1-Back,1,m,Wed Sep 04 2024 14:02:30 GMT-0500 (Central Daylight Time),193811.0,058_m_m_n_a.png,O,m,868,8,1,1896.1000000238419,191914.89999997616,7004,NNB,A,7
8,test,1,0.0,1-Back,1,m,Wed Sep 04 2024 14:02:30 GMT-0500 (Central Daylight Time),195530.59999990463,047_o_f_n_a.png,O,m,684,9,1,1711.1999999284744,193819.39999997616,7004,NNB,A,8
9,test,1,0.0,1-Back,1,m,Wed Sep 04 2024 14:02:30 GMT-0500 (Central Daylight Time),197184.19999992847,058_m_m_n_a.png,O,m,627,10,1,1643.1999999284744,195541.0,7004,NNB,A,9
10,test,1,0.0,1-Back,1,m,Wed Sep 04 2024 14:02:30 GMT-0500 (Central Daylight Time),198921.39999997616,041_y_m_n_a.png,O,m,702,11,1,1727.8999999761581,197193.5,7004,NNB,A,10
11,test,1,1.0,1-Back,1,z,Wed Sep 04 2024 14:02:30 GMT-0500 (Central Daylight Time),200507.0,041_y_m_n_a.png,O,z,566,12,1,1577.4000000953674,198929.59999990463,7004,NNB,A,11
12,test,1,0.0,1-Back,1,m,Wed Sep 04 2024 14:02:30 GMT-0500 (Central Daylight Time),202394.79999995232,044_o_f_n_a.png,O,m,851,13,1,1877.8999999761581,200516.89999997616,7004,NNB,A,12
13,test,1,1.0,1-Back,1,z,Wed Sep 04 2024 14:02:30 GMT-0500 (Central Daylight Time),204063.79999995232,044_o_f_n_a.png,O,z,644,14,1,1658.2000000476837,202405.59999990463,7004,NNB,A,13
14,test,1,0.0,1-Back,1,m,Wed Sep 04 2024 14:02:30 GMT-0500 (Central Daylight Time),205650.69999992847,008_y_m_n_a.png,O,m,551,15,1,1574.8999999761581,204075.79999995232,7004,NNB,A,14
15,test,1,0.0,1-Back,1,m,Wed Sep 04 2024 14:02:30 GMT-0500 (Central Daylight Time),207404.39999997616,050_m_f_n_a.png,O,m,724,16,1,1744.0,205660.39999997616,7004,NNB,A,15
16,test,1,0.0,1-Back,1,m,Wed Sep 04 2024 14:02:30 GMT-0500 (Central Daylight Time),209007.09999990463,046_o_m_n_a.png,O,m,579,17,1,1590.0999999046326,207417.0,7004,NNB,A,16
17,test,1,0.0,1-Back,1,m,Wed Sep 04 2024 14:02:30 GMT-0500 (Central Daylight Time),210860.5,050_m_f_n_a.png,O,m,824,18,1,1842.9000000953674,209017.59999990463,7004,NNB,A,17
0,test,2,0.0,1-Back,,,Wed Sep 04 2024 14:02:30 GMT-0500 (Central Daylight Time),210860.5,058_m_m_n_a.png,O,space,2475,1,1,1842.9000000953674,209017.59999990463,7004,NNB,A,0
1,test,2,0.0,1-Back,1,m,Wed Sep 04 2024 14:02:30 GMT-0500 (Central Daylight Time),217072.5,043_m_f_n_a.png,O,m,669,2,1,1690.7000000476837,215381.79999995232,7004,NNB,A,1
2,test,2,1.0,1-Back,1,z,Wed Sep 04 2024 14:02:30 GMT-0500 (Central Daylight Time),218909.39999997616,043_m_f_n_a.png,O,z,814,3,1,1824.7000000476837,217084.69999992847,7004,NNB,A,2
3,test,2,0.0,1-Back,1,m,Wed Sep 04 2024 14:02:30 GMT-0500 (Central Daylight Time),220612.59999990463,058_m_m_n_a.png,O,m,681,4,1,1692.7999999523163,218919.79999995232,7004,NNB,A,3
4,test,2,0.0,1-Back,1,m,Wed Sep 04 2024 14:02:30 GMT-0500 (Central Daylight Time),222249.69999992847,041_y_m_n_a.png,O,m,610,5,1,1628.2999999523163,220621.39999997616,7004,NNB,A,4
5,test,2,0.0,1-Back,1,m,Wed Sep 04 2024 14:02:30 GMT-0500 (Central Daylight Time),223869.5,063_y_f_n_a.png,O,m,591,6,1,1609.3000000715256,222260.19999992847,7004,NNB,A,5
6,test,2,1.0,1-Back,1,z,Wed Sep 04 2024 14:02:30 GMT-0500 (Central Daylight Time),225389.39999997616,063_y_f_n_a.png,O,z,488,7,1,1507.8000000715256,223881.59999990463,7004,NNB,A,6
7,test,2,0.0,1-Back,1,m,Wed Sep 04 2024 14:02:30 GMT-0500 (Central Daylight Time),227025.29999995232,041_y_m_n_a.png,O,m,610,8,1,1625.3999999761581,225399.89999997616,7004,NNB,A,7
8,test,2,0.0,1-Back,1,m,Wed Sep 04 2024 14:02:30 GMT-0500 (Central Daylight Time),228829.19999992847,044_o_f_n_a.png,O,m,773,9,1,1792.3999999761581,227036.79999995232,7004,NNB,A,8
9,test,2,0.0,1-Back,1,m,Wed Sep 04 2024 14:02:30 GMT-0500 (Central Daylight Time),230432.19999992847,045_m_m_n_a.png,O,m,569,10,1,1589.6999999284744,228842.5,7004,NNB,A,9
10,test,2,1.0,1-Back,1,z,Wed Sep 04 2024 14:02:30 GMT-0500 (Central Daylight Time),231969.19999992847,045_m_m_n_a.png,O,z,510,11,1,1525.6000000238419,230443.59999990463,7004,NNB,A,10
11,test,2,0.0,1-Back,1,m,Wed Sep 04 2024 14:02:30 GMT-0500 (Central Daylight Time),233538.69999992847,044_o_f_n_a.png,O,m,543,12,1,1559.2999999523163,231979.39999997616,7004,NNB,A,11
12,test,2,0.0,1-Back,1,m,Wed Sep 04 2024 14:02:30 GMT-0500 (Central Daylight Time),235258.19999992847,047_o_f_n_a.png,O,m,694,13,1,1707.1000000238419,233551.09999990463,7004,NNB,A,12
13,test,2,0.0,1-Back,1,m,Wed Sep 04 2024 14:02:30 GMT-0500 (Central Daylight Time),236811.59999990463,053_o_m_n_a.png,O,m,533,14,1,1542.5,235269.09999990463,7004,NNB,A,13
14,test,2,0.0,1-Back,1,m,Wed Sep 04 2024 14:02:30 GMT-0500 (Central Daylight Time),238331.19999992847,046_o_m_n_a.png,O,m,499,15,1,1509.2999999523163,236821.89999997616,7004,NNB,A,14
15,test,2,1.0,1-Back,1,z,Wed Sep 04 2024 14:02:30 GMT-0500 (Central Daylight Time),239850.39999997616,046_o_m_n_a.png,O,z,484,16,1,1508.5,238341.89999997616,7004,NNB,A,15
16,test,2,0.0,1-Back,1,m,Wed Sep 04 2024 14:02:30 GMT-0500 (Central Daylight Time),241420.09999990463,008_y_m_n_a.png,O,m,540,17,1,1557.1999999284744,239862.89999997616,7004,NNB,A,16
17,test,2,1.0,1-Back,1,z,Wed Sep 04 2024 14:02:30 GMT-0500 (Central Daylight Time),243073.5,008_y_m_n_a.png,O,z,618,18,1,1642.5,241431.0,7004,NNB,A,17
0,test,3,1.0,1-Back,,,Wed Sep 04 2024 14:02:30 GMT-0500 (Central Daylight Time),243073.5,010_y_f_n_a.png,O,space,1909,1,1,1642.5,241431.0,7004,NNB,A,0
1,test,3,0.0,1-Back,1,m,Wed Sep 04 2024 14:02:30 GMT-0500 (Central Daylight Time),248651.79999995232,046_o_m_n_a.png,O,m,558,2,1,1581.7000000476837,247070.09999990463,7004,NNB,A,1
2,test,3,1.0,1-Back,1,z,Wed Sep 04 2024 14:02:30 GMT-0500 (Central Daylight Time),250187.39999997616,046_o_m_n_a.png,O,z,507,3,1,1525.8000000715256,248661.59999990463,7004,NNB,A,2
3,test,3,0.0,1-Back,1,m,Wed Sep 04 2024 14:02:30 GMT-0500 (Central Daylight Time),251690.29999995232,050_m_f_n_a.png,O,m,475,4,1,1494.7999999523163,250195.5,7004,NNB,A,3
4,test,3,1.0,1-Back,1,z,Wed Sep 04 2024 14:02:30 GMT-0500 (Central Daylight Time),253343.5,050_m_f_n_a.png,O,z,629,5,1,1641.8000000715256,251701.69999992847,7004,NNB,A,4
5,test,3,0.0,1-Back,1,m,Wed Sep 04 2024 14:02:30 GMT-0500 (Central Daylight Time),254996.5,044_o_f_n_a.png,O,m,633,6,1,1641.1000000238419,253355.39999997616,7004,NNB,A,5
6,test,3,0.0,1-Back,1,m,Wed Sep 04 2024 14:02:30 GMT-0500 (Central Daylight Time),256884.09999990463,041_y_m_n_a.png,O,m,858,7,1,1879.7999999523163,255004.29999995232,7004,NNB,A,6
7,test,3,0.0,1-Back,1,m,Wed Sep 04 2024 14:02:30 GMT-0500 (Central Daylight Time),258436.29999995232,044_o_f_n_a.png,O,m,523,8,1,1541.6000000238419,256894.69999992847,7004,NNB,A,7
8,test,3,0.0,1-Back,1,m,Wed Sep 04 2024 14:02:30 GMT-0500 (Central Daylight Time),260006.5,008_y_m_n_a.png,O,m,538,9,1,1561.4000000953674,258445.09999990463,7004,NNB,A,8
9,test,3,1.0,1-Back,1,z,Wed Sep 04 2024 14:02:30 GMT-0500 (Central Daylight Time),261474.79999995232,008_y_m_n_a.png,O,z,439,10,1,1457.5,260017.29999995232,7004,NNB,A,9
10,test,3,0.0,1-Back,1,m,Wed Sep 04 2024 14:02:30 GMT-0500 (Central Daylight Time),263078.89999997616,043_m_f_n_a.png,O,m,571,11,1,1599.1000000238419,261479.79999995232,7004,NNB,A,10
11,test,3,0.0,1-Back,1,m,Wed Sep 04 2024 14:02:30 GMT-0500 (Central Daylight Time),264765.2999999523,063_y_f_n_a.png,O,m,656,12,1,1675.7999999523163,263089.5,7004,NNB,A,11
12,test,3,1.0,1-Back,1,z,Wed Sep 04 2024 14:02:30 GMT-0500 (Central Daylight Time),266335.09999990463,063_y_f_n_a.png,O,z,537,13,1,1560.0,264775.09999990463,7004,NNB,A,12
13,test,3,0.0,1-Back,1,m,Wed Sep 04 2024 14:02:30 GMT-0500 (Central Daylight Time),267888.39999997616,043_m_f_n_a.png,O,m,519,14,1,1543.1000000238419,266345.2999999523,7004,NNB,A,13
14,test,3,0.0,1-Back,1,m,Wed Sep 04 2024 14:02:30 GMT-0500 (Central Daylight Time),269591.5,058_m_m_n_a.png,O,m,678,15,1,1693.0,267898.5,7004,NNB,A,14
15,test,3,1.0,1-Back,1,z,Wed Sep 04 2024 14:02:30 GMT-0500 (Central Daylight Time),271178.7999999523,058_m_m_n_a.png,O,z,550,16,1,1577.7000000476837,269601.09999990463,7004,NNB,A,15
16,test,3,0.0,1-Back,1,m,Wed Sep 04 2024 14:02:30 GMT-0500 (Central Daylight Time),272781.09999990463,047_o_f_n_a.png,O,m,580,17,1,1590.8999999761581,271190.1999999285,7004,NNB,A,16
17,test,3,1.0,1-Back,1,z,Wed Sep 04 2024 14:02:30 GMT-0500 (Central Daylight Time),274450.59999990463,047_o_f_n_a.png,O,z,649,18,1,1659.5,272791.09999990463,7004,NNB,A,17
0,test,4,1.0,1-Back,,,Wed Sep 04 2024 14:02:30 GMT-0500 (Central Daylight Time),274450.59999990463,050_m_f_n_a.png,O,space,1781,1,1,1659.5,272791.09999990463,7004,NNB,A,0
1,test,4,0.0,1-Back,1,m,Wed Sep 04 2024 14:02:30 GMT-0500 (Central Daylight Time),279828.2999999523,046_o_m_n_a.png,O,m,549,2,1,1558.6000000238419,278269.6999999285,7004,NNB,A,1
2,test,4,0.0,1-Back,1,m,Wed Sep 04 2024 14:02:30 GMT-0500 (Central Daylight Time),281464.5,050_m_f_n_a.png,O,m,610,3,1,1625.0,279839.5,7004,NNB,A,2
3,test,4,0.0,1-Back,1,m,Wed Sep 04 2024 14:02:30 GMT-0500 (Central Daylight Time),282967.39999997616,044_o_f_n_a.png,O,m,477,4,1,1491.5,281475.89999997616,7004,NNB,A,3
4,test,4,1.0,1-Back,1,z,Wed Sep 04 2024 14:02:30 GMT-0500 (Central Daylight Time),284403.59999990463,044_o_f_n_a.png,O,z,415,5,1,1427.5999999046326,282976.0,7004,NNB,A,4
5,test,4,0.0,1-Back,1,m,Wed Sep 04 2024 14:02:30 GMT-0500 (Central Daylight Time),285906.59999990463,063_y_f_n_a.png,O,m,475,6,1,1492.6999999284744,284413.89999997616,7004,NNB,A,5
6,test,4,0.0,1-Back,1,m,Wed Sep 04 2024 14:02:30 GMT-0500 (Central Daylight Time),287559.89999997616,041_y_m_n_a.png,O,m,620,7,1,1642.1000000238419,285917.7999999523,7004,NNB,A,6
7,test,4,1.0,1-Back,1,z,Wed Sep 04 2024 14:02:30 GMT-0500 (Central Daylight Time),289096.1999999285,041_y_m_n_a.png,O,z,511,8,1,1526.1000000238419,287570.09999990463,7004,NNB,A,7
8,test,4,0.0,1-Back,1,m,Wed Sep 04 2024 14:02:30 GMT-0500 (Central Daylight Time),290582.09999990463,063_y_f_n_a.png,O,m,464,9,1,1477.1999999284744,289104.89999997616,7004,NNB,A,8
9,test,4,0.0,1-Back,1,m,Wed Sep 04 2024 14:02:30 GMT-0500 (Central Daylight Time),292185.6999999285,045_m_m_n_a.png,O,m,569,10,1,1591.7999999523163,290593.89999997616,7004,NNB,A,9
10,test,4,1.0,1-Back,1,z,Wed Sep 04 2024 14:02:30 GMT-0500 (Central Daylight Time),293671.6999999285,045_m_m_n_a.png,O,z,454,11,1,1476.0,292195.6999999285,7004,NNB,A,10
11,test,4,0.0,1-Back,1,m,Wed Sep 04 2024 14:02:30 GMT-0500 (Central Daylight Time),295224.5,047_o_f_n_a.png,O,m,518,12,1,1542.1000000238419,293682.39999997616,7004,NNB,A,11
12,test,4,0.0,1-Back,1,m,Wed Sep 04 2024 14:02:30 GMT-0500 (Central Daylight Time),296761.1999999285,053_o_m_n_a.png,O,m,502,13,1,1526.1999999284744,295235.0,7004,NNB,A,12
13,test,4,0.0,1-Back,1,m,Wed Sep 04 2024 14:02:30 GMT-0500 (Central Daylight Time),298364.0,047_o_f_n_a.png,O,m,573,14,1,1593.7000000476837,296770.2999999523,7004,NNB,A,13
14,test,4,0.0,1-Back,1,m,Wed Sep 04 2024 14:02:30 GMT-0500 (Central Daylight Time),299867.7999999523,010_y_f_n_a.png,O,m,475,15,1,1494.2000000476837,298373.59999990463,7004,NNB,A,14
15,test,4,1.0,1-Back,1,z,Wed Sep 04 2024 14:02:30 GMT-0500 (Central Daylight Time),301336.7999999523,010_y_f_n_a.png,O,z,435,16,1,1457.5,299879.2999999523,7004,NNB,A,15
16,test,4,0.0,1-Back,1,m,Wed Sep 04 2024 14:02:30 GMT-0500 (Central Daylight Time),302822.59999990463,043_m_f_n_a.png,O,m,460,17,1,1475.5,301347.09999990463,7004,NNB,A,16
17,test,4,1.0,1-Back,1,z,Wed Sep 04 2024 14:02:30 GMT-0500 (Central Daylight Time),304409.1999999285,043_m_f_n_a.png,O,z,560,18,1,1575.2999999523163,302833.89999997616,7004,NNB,A,17
0,test,5,1.0,1-Back,,,Wed Sep 04 2024 14:02:30 GMT-0500 (Central Daylight Time),304409.1999999285,053_o_m_n_a.png,O,space,1934,1,1,1575.2999999523163,302833.89999997616,7004,NNB,A,0
1,test,5,1.0,1-Back,1,z,Wed Sep 04 2024 14:02:30 GMT-0500 (Central Daylight Time),310069.7999999523,053_o_m_n_a.png,O,z,680,2,1,1692.3999999761581,308377.39999997616,7004,NNB,A,1
2,test,5,0.0,1-Back,1,m,Wed Sep 04 2024 14:02:30 GMT-0500 (Central Daylight Time),311656.6999999285,063_y_f_n_a.png,O,m,552,3,1,1575.6999999284744,310081.0,7004,NNB,A,2
3,test,5,0.0,1-Back,1,m,Wed Sep 04 2024 14:02:30 GMT-0500 (Central Daylight Time),313193.59999990463,041_y_m_n_a.png,O,m,501,4,1,1527.5999999046326,311666.0,7004,NNB,A,3
4,test,5,0.0,1-Back,1,m,Wed Sep 04 2024 14:02:30 GMT-0500 (Central Daylight Time),314695.59999990463,063_y_f_n_a.png,O,m,470,5,1,1492.6999999284744,313202.89999997616,7004,NNB,A,4
5,test,5,0.0,1-Back,1,m,Wed Sep 04 2024 14:02:30 GMT-0500 (Central Daylight Time),316182.09999990463,058_m_m_n_a.png,O,m,462,6,1,1473.3999999761581,314708.6999999285,7004,NNB,A,5
6,test,5,1.0,1-Back,1,z,Wed Sep 04 2024 14:02:30 GMT-0500 (Central Daylight Time),317785.5,058_m_m_n_a.png,O,z,577,7,1,1593.6000000238419,316191.89999997616,7004,NNB,A,6
7,test,5,0.0,1-Back,1,m,Wed Sep 04 2024 14:02:30 GMT-0500 (Central Daylight Time),319238.09999990463,010_y_f_n_a.png,O,m,430,8,1,1443.0999999046326,317795.0,7004,NNB,A,7
8,test,5,0.0,1-Back,1,m,Wed Sep 04 2024 14:02:30 GMT-0500 (Central Daylight Time),320807.59999990463,008_y_m_n_a.png,O,m,544,9,1,1560.7999999523163,319246.7999999523,7004,NNB,A,8
9,test,5,0.0,1-Back,1,m,Wed Sep 04 2024 14:02:30 GMT-0500 (Central Daylight Time),322327.59999990463,010_y_f_n_a.png,O,m,495,10,1,1509.7999999523163,320817.7999999523,7004,NNB,A,9
10,test,5,0.0,1-Back,1,m,Wed Sep 04 2024 14:02:30 GMT-0500 (Central Daylight Time),323897.09999990463,047_o_f_n_a.png,O,m,534,11,1,1559.5999999046326,322337.5,7004,NNB,A,10
11,test,5,1.0,1-Back,1,z,Wed Sep 04 2024 14:02:30 GMT-0500 (Central Daylight Time),325383.89999997616,047_o_f_n_a.png,O,z,462,12,1,1477.3000000715256,323906.59999990463,7004,NNB,A,11
12,test,5,0.0,1-Back,1,m,Wed Sep 04 2024 14:02:30 GMT-0500 (Central Daylight Time),326953.0,046_o_m_n_a.png,O,m,543,13,1,1558.2000000476837,325394.7999999523,7004,NNB,A,12
13,test,5,0.0,1-Back,1,m,Wed Sep 04 2024 14:02:30 GMT-0500 (Central Daylight Time),328405.7999999523,050_m_f_n_a.png,O,m,421,14,1,1443.7999999523163,326962.0,7004,NNB,A,13
14,test,5,1.0,1-Back,1,z,Wed Sep 04 2024 14:02:30 GMT-0500 (Central Daylight Time),329892.09999990463,050_m_f_n_a.png,O,z,455,15,1,1476.5,328415.59999990463,7004,NNB,A,14
15,test,5,0.0,1-Back,1,m,Wed Sep 04 2024 14:02:30 GMT-0500 (Central Daylight Time),331378.2999999523,046_o_m_n_a.png,O,m,459,16,1,1475.6000000238419,329902.6999999285,7004,NNB,A,15
16,test,5,0.0,1-Back,1,m,Wed Sep 04 2024 14:02:30 GMT-0500 (Central Daylight Time),332914.39999997616,043_m_f_n_a.png,O,m,508,17,1,1527.8999999761581,331386.5,7004,NNB,A,16
17,test,5,0.0,1-Back,1,m,Wed Sep 04 2024 14:02:30 GMT-0500 (Central Daylight Time),334450.89999997616,045_m_m_n_a.png,O,m,508,18,1,1527.1000000238419,332923.7999999523,7004,NNB,A,17
0,prac,1,0.0,2-Back,,,Wed Sep 04 2024 14:02:30 GMT-0500 (Central Daylight Time),334450.89999997616,008_y_m_n_a.png,O,space,16908,1,1,1527.1000000238419,332923.7999999523,7004,NNB,A,0
0,prac,1,0.0,2-Back,,,Wed Sep 04 2024 14:02:30 GMT-0500 (Central Daylight Time),334450.89999997616,043_m_f_n_a.png,O,space,16908,2,1,1527.1000000238419,332923.7999999523,7004,NNB,A,0
1,prac,1,1.0,2-Back,1,m,Wed Sep 04 2024 14:02:30 GMT-0500 (Central Daylight Time),453448.89999997616,046_o_m_n_a.png,O,m,1055,3,1,1826.8999999761581,451622.0,7004,NNB,A,1
2,prac,1,0.0,2-Back,1,m,Wed Sep 04 2024 14:02:30 GMT-0500 (Central Daylight Time),455753.89999997616,047_o_f_n_a.png,O,m,1485,4,1,2297.399999976158,453456.5,7004,NNB,A,2
3,prac,1,0.0,2-Back,1,z,Wed Sep 04 2024 14:02:30 GMT-0500 (Central Daylight Time),457741.0,046_o_m_n_a.png,O,z,1212,5,1,1975.9000000953674,455765.09999990463,7004,NNB,A,3
4,prac,1,1.0,2-Back,1,z,Wed Sep 04 2024 14:02:30 GMT-0500 (Central Daylight Time),460062.39999997616,047_o_f_n_a.png,O,z,1538,6,1,2311.100000023842,457751.2999999523,7004,NNB,A,4
5,prac,1,0.0,2-Back,1,m,Wed Sep 04 2024 14:02:30 GMT-0500 (Central Daylight Time),461631.89999997616,045_m_m_n_a.png,O,m,773,7,1,1559.2000000476837,460072.6999999285,7004,NNB,A,5
6,prac,1,0.0,2-Back,1,m,Wed Sep 04 2024 14:02:30 GMT-0500 (Central Daylight Time),463184.0,053_o_m_n_a.png,O,m,738,8,1,1542.2000000476837,461641.7999999523,7004,NNB,A,6
7,prac,1,0.0,2-Back,1,m,Wed Sep 04 2024 14:02:30 GMT-0500 (Central Daylight Time),464789.39999997616,010_y_f_n_a.png,O,m,784,9,1,1597.3999999761581,463192.0,7004,NNB,A,7
8,prac,1,1.0,2-Back,1,z,Wed Sep 04 2024 14:02:30 GMT-0500 (Central Daylight Time),466474.2999999523,053_o_m_n_a.png,O,z,913,10,1,1674.7999999523163,464799.5,7004,NNB,A,8
9,prac,1,0.0,2-Back,1,m,Wed Sep 04 2024 14:02:30 GMT-0500 (Central Daylight Time),468078.09999990463,063_y_f_n_a.png,O,m,802,11,1,1596.0,466482.09999990463,7004,NNB,A,9
10,prac,1,0.0,2-Back,1,m,Wed Sep 04 2024 14:02:30 GMT-0500 (Central Daylight Time),469998.2999999523,045_m_m_n_a.png,O,m,1137,12,1,1910.2999999523163,468088.0,7004,NNB,A,10
0,test,1,0.0,2-Back,,,Wed Sep 04 2024 14:02:30 GMT-0500 (Central Daylight Time),469998.2999999523,041_y_m_n_a.png,O,space,11500,1,1,1910.2999999523163,468088.0,7004,NNB,A,0
0,test,1,0.0,2-Back,,,Wed Sep 04 2024 14:02:30 GMT-0500 (Central Daylight Time),469998.2999999523,041_y_m_n_a.png,O,space,11500,2,1,1910.2999999523163,468088.0,7004,NNB,A,0
1,test,1,0.0,2-Back,1,m,Wed Sep 04 2024 14:02:30 GMT-0500 (Central Daylight Time),495263.89999997616,047_o_f_n_a.png,O,m,936,3,1,1961.3999999761581,493302.5,7004,NNB,A,1
2,test,1,0.0,2-Back,1,m,Wed Sep 04 2024 14:02:30 GMT-0500 (Central Daylight Time),497184.09999990463,058_m_m_n_a.png,O,m,894,4,1,1911.1999999284744,495272.89999997616,7004,NNB,A,2
3,test,1,1.0,2-Back,1,z,Wed Sep 04 2024 14:02:30 GMT-0500 (Central Daylight Time),499237.6999999285,047_o_f_n_a.png,O,z,1023,5,1,2045.0,497192.6999999285,7004,NNB,A,3
4,test,1,0.0,2-Back,1,m,Wed Sep 04 2024 14:02:30 GMT-0500 (Central Daylight Time),500991.2999999523,063_y_f_n_a.png,O,m,728,6,1,1741.5,499249.7999999523,7004,NNB,A,4
5,test,1,0.0,2-Back,1,m,Wed Sep 04 2024 14:02:30 GMT-0500 (Central Daylight Time),503196.2999999523,058_m_m_n_a.png,O,m,1175,7,1,2194.5,501001.7999999523,7004,NNB,A,5
6,test,1,1.0,2-Back,1,z,Wed Sep 04 2024 14:02:30 GMT-0500 (Central Daylight Time),504849.59999990463,063_y_f_n_a.png,O,z,626,8,1,1644.0999999046326,503205.5,7004,NNB,A,6
7,test,1,0.0,2-Back,1,m,Wed Sep 04 2024 14:02:30 GMT-0500 (Central Daylight Time),506969.5,008_y_m_n_a.png,O,m,1092,9,1,2110.7000000476837,504858.7999999523,7004,NNB,A,7
8,test,1,0.0,2-Back,1,m,Wed Sep 04 2024 14:02:30 GMT-0500 (Central Daylight Time),508572.2999999523,044_o_f_n_a.png,O,m,580,10,1,1591.6000000238419,506980.6999999285,7004,NNB,A,8
9,test,1,1.0,2-Back,1,z,Wed Sep 04 2024 14:02:30 GMT-0500 (Central Daylight Time),510043.09999990463,008_y_m_n_a.png,O,z,452,11,1,1464.5999999046326,508578.5,7004,NNB,A,9
10,test,1,0.0,2-Back,1,m,Wed Sep 04 2024 14:02:30 GMT-0500 (Central Daylight Time),511846.2999999523,043_m_f_n_a.png,O,m,780,12,1,1795.8999999761581,510050.39999997616,7004,NNB,A,10
10,test,1,0.0,2-Back,0,m,Wed Sep 04 2024 14:02:30 GMT-0500 (Central Daylight Time),513966.6999999285,043_m_f_n_a.png,O,z,1097,13,1,2109.7999999523163,511856.89999997616,7004,NNB,A,11
11,test,1,0.0,2-Back,1,m,Wed Sep 04 2024 14:02:30 GMT-0500 (Central Daylight Time),515905.2999999523,046_o_m_n_a.png,O,m,912,14,1,1927.1000000238419,513978.1999999285,7004,NNB,A,12
12,test,1,0.0,2-Back,1,m,Wed Sep 04 2024 14:02:30 GMT-0500 (Central Daylight Time),518191.2999999523,044_o_f_n_a.png,O,m,1254,15,1,2275.399999976158,515915.89999997616,7004,NNB,A,13
13,test,1,1.0,2-Back,1,z,Wed Sep 04 2024 14:02:30 GMT-0500 (Central Daylight Time),519660.6999999285,046_o_m_n_a.png,O,z,447,16,1,1463.6999999284744,518197.0,7004,NNB,A,14
14,test,1,0.0,2-Back,1,m,Wed Sep 04 2024 14:02:30 GMT-0500 (Central Daylight Time),521648.2999999523,050_m_f_n_a.png,O,m,954,17,1,1980.7999999523163,519667.5,7004,NNB,A,15
15,test,1,0.0,2-Back,1,m,Wed Sep 04 2024 14:02:30 GMT-0500 (Central Daylight Time),523486.1999999285,045_m_m_n_a.png,O,m,806,18,1,1830.0,521656.1999999285,7004,NNB,A,16
0,test,2,0.0,2-Back,,,Wed Sep 04 2024 14:02:30 GMT-0500 (Central Daylight Time),523486.1999999285,045_m_m_n_a.png,O,space,2216,1,1,1830.0,521656.1999999285,7004,NNB,A,0
0,test,2,0.0,2-Back,,,Wed Sep 04 2024 14:02:30 GMT-0500 (Central Daylight Time),523486.1999999285,010_y_f_n_a.png,O,space,2216,2,1,1830.0,521656.1999999285,7004,NNB,A,0
1,test,2,1.0,2-Back,1,z,Wed Sep 04 2024 14:02:30 GMT-0500 (Central Daylight Time),532369.5,045_m_m_n_a.png,O,z,560,3,1,1576.8000000715256,530792.6999999285,7004,NNB,A,1
2,test,2,0.0,2-Back,1,m,Wed Sep 04 2024 14:02:30 GMT-0500 (Central Daylight Time),534290.5999999046,050_m_f_n_a.png,O,m,901,4,1,1910.7999999523163,532379.7999999523,7004,NNB,A,2
2,test,2,0.0,2-Back,0,m,Wed Sep 04 2024 14:02:30 GMT-0500 (Central Daylight Time),536193.7999999523,010_y_f_n_a.png,O,z,884,5,1,1895.5,534298.2999999523,7004,NNB,A,3
3,test,2,0.0,2-Back,1,m,Wed Sep 04 2024 14:02:30 GMT-0500 (Central Daylight Time),538047.1999999285,046_o_m_n_a.png,O,m,829,6,1,1843.3999999761581,536203.7999999523,7004,NNB,A,4
4,test,2,0.0,2-Back,1,m,Wed Sep 04 2024 14:02:30 GMT-0500 (Central Daylight Time),540217.8999999762,063_y_f_n_a.png,O,m,1143,7,1,2157.600000023842,538060.2999999523,7004,NNB,A,5
5,test,2,1.0,2-Back,1,z,Wed Sep 04 2024 14:02:30 GMT-0500 (Central Daylight Time),541737.5999999046,046_o_m_n_a.png,O,z,499,8,1,1508.3999999761581,540229.1999999285,7004,NNB,A,6
6,test,2,0.0,2-Back,1,m,Wed Sep 04 2024 14:02:30 GMT-0500 (Central Daylight Time),543824.7999999523,008_y_m_n_a.png,O,m,1061,9,1,2077.7000000476837,541747.0999999046,7004,NNB,A,7
7,test,2,0.0,2-Back,1,m,Wed Sep 04 2024 14:02:30 GMT-0500 (Central Daylight Time),546162.7999999523,008_y_m_n_a.png,O,m,1318,10,1,2325.100000023842,543837.6999999285,7004,NNB,A,8
8,test,2,0.0,2-Back,1,m,Wed Sep 04 2024 14:02:30 GMT-0500 (Central Daylight Time),548250.5999999046,043_m_f_n_a.png,O,m,1060,11,1,2077.5999999046326,546173.0,7004,NNB,A,9
9,test,2,0.0,2-Back,1,m,Wed Sep 04 2024 14:02:30 GMT-0500 (Central Daylight Time),550237.5999999046,010_y_f_n_a.png,O,m,955,12,1,1975.1999999284744,548262.3999999762,7004,NNB,A,10
10,test,2,1.0,2-Back,1,z,Wed Sep 04 2024 14:02:30 GMT-0500 (Central Daylight Time),552408.2999999523,043_m_f_n_a.png,O,z,1137,13,1,2159.7999999523163,550248.5,7004,NNB,A,11
11,test,2,0.0,2-Back,1,m,Wed Sep 04 2024 14:02:30 GMT-0500 (Central Daylight Time),554429.0,053_o_m_n_a.png,O,m,991,14,1,2010.0,552419.0,7004,NNB,A,12
12,test,2,0.0,2-Back,1,m,Wed Sep 04 2024 14:02:30 GMT-0500 (Central Daylight Time),556532.8999999762,053_o_m_n_a.png,O,m,1073,15,1,2094.3000000715256,554438.5999999046,7004,NNB,A,13
13,test,2,0.0,2-Back,1,m,Wed Sep 04 2024 14:02:30 GMT-0500 (Central Daylight Time),558771.0999999046,044_o_f_n_a.png,O,m,1209,16,1,2228.6999999284744,556542.3999999762,7004,NNB,A,14
14,test,2,0.0,2-Back,1,m,Wed Sep 04 2024 14:02:30 GMT-0500 (Central Daylight Time),560708.2999999523,058_m_m_n_a.png,O,m,908,17,1,1927.3999999761581,558780.8999999762,7004,NNB,A,15
15,test,2,1.0,2-Back,1,z,Wed Sep 04 2024 14:02:30 GMT-0500 (Central Daylight Time),562594.6999999285,044_o_f_n_a.png,O,z,866,18,1,1874.6999999284744,560720.0,7004,NNB,A,16
0,test,3,1.0,2-Back,,,Wed Sep 04 2024 14:02:30 GMT-0500 (Central Daylight Time),562594.6999999285,041_y_m_n_a.png,O,space,2084,1,1,1874.6999999284744,560720.0,7004,NNB,A,0
0,test,3,1.0,2-Back,,,Wed Sep 04 2024 14:02:30 GMT-0500 (Central Daylight Time),562594.6999999285,041_y_m_n_a.png,O,space,2084,2,1,1874.6999999284744,560720.0,7004,NNB,A,0
1,test,3,0.0,2-Back,1,m,Wed Sep 04 2024 14:02:30 GMT-0500 (Central Daylight Time),571696.0999999046,044_o_f_n_a.png,O,m,937,3,1,1961.5999999046326,569734.5,7004,NNB,A,1
2,test,3,0.0,2-Back,1,m,Wed Sep 04 2024 14:02:30 GMT-0500 (Central Daylight Time),573683.1999999285,045_m_m_n_a.png,O,m,957,4,1,1977.6999999284744,571705.5,7004,NNB,A,2
3,test,3,1.0,2-Back,1,z,Wed Sep 04 2024 14:02:30 GMT-0500 (Central Daylight Time),575219.5,044_o_f_n_a.png,O,z,508,5,1,1527.2000000476837,573692.2999999523,7004,NNB,A,3
4,test,3,0.0,2-Back,1,m,Wed Sep 04 2024 14:02:30 GMT-0500 (Central Daylight Time),577473.8999999762,008_y_m_n_a.png,O,m,1219,6,1,2244.600000023842,575229.2999999523,7004,NNB,A,4
4,test,3,0.0,2-Back,0,m,Wed Sep 04 2024 14:02:30 GMT-0500 (Central Daylight Time),579844.6999999285,045_m_m_n_a.png,O,z,1348,7,1,2361.899999976158,577482.7999999523,7004,NNB,A,5
5,test,3,1.0,2-Back,1,z,Wed Sep 04 2024 14:02:30 GMT-0500 (Central Daylight Time),581883.0,008_y_m_n_a.png,O,z,1017,8,1,2028.4000000953674,579854.5999999046,7004,NNB,A,6
6,test,3,0.0,2-Back,1,m,Wed Sep 04 2024 14:02:30 GMT-0500 (Central Daylight Time),583685.6999999285,010_y_f_n_a.png,O,m,780,9,1,1793.1000000238419,581892.5999999046,7004,NNB,A,7
7,test,3,0.0,2-Back,1,m,Wed Sep 04 2024 14:02:30 GMT-0500 (Central Daylight Time),585622.5999999046,058_m_m_n_a.png,O,m,905,10,1,1927.7999999523163,583694.7999999523,7004,NNB,A,8
8,test,3,1.0,2-Back,1,z,Wed Sep 04 2024 14:02:30 GMT-0500 (Central Daylight Time),587075.5999999046,010_y_f_n_a.png,O,z,432,11,1,1444.0999999046326,585631.5,7004,NNB,A,9
9,test,3,1.0,2-Back,1,z,Wed Sep 04 2024 14:02:30 GMT-0500 (Central Daylight Time),588979.1999999285,058_m_m_n_a.png,O,z,883,12,1,1892.3999999761581,587086.7999999523,7004,NNB,A,10
10,test,3,0.0,2-Back,1,m,Wed Sep 04 2024 14:02:30 GMT-0500 (Central Daylight Time),590816.8999999762,044_o_f_n_a.png,O,m,811,13,1,1827.2000000476837,588989.6999999285,7004,NNB,A,11
11,test,3,0.0,2-Back,1,m,Wed Sep 04 2024 14:02:30 GMT-0500 (Central Daylight Time),592536.5999999046,050_m_f_n_a.png,O,m,694,14,1,1707.8999999761581,590828.6999999285,7004,NNB,A,12
12,test,3,0.0,2-Back,1,m,Wed Sep 04 2024 14:02:30 GMT-0500 (Central Daylight Time),594339.7999999523,046_o_m_n_a.png,O,m,774,15,1,1793.8999999761581,592545.8999999762,7004,NNB,A,13
12,test,3,1.0,2-Back,0,z,Wed Sep 04 2024 14:02:30 GMT-0500 (Central Daylight Time),596594.5,050_m_f_n_a.png,O,m,1235,16,1,2245.4000000953674,594349.0999999046,7004,NNB,A,14
13,test,3,0.0,2-Back,1,m,Wed Sep 04 2024 14:02:30 GMT-0500 (Central Daylight Time),598565.0999999046,047_o_f_n_a.png,O,m,949,17,1,1962.8999999761581,596602.1999999285,7004,NNB,A,15
14,test,3,0.0,2-Back,1,m,Wed Sep 04 2024 14:02:30 GMT-0500 (Central Daylight Time),601086.0,047_o_f_n_a.png,O,m,1489,18,1,2509.600000023842,598576.3999999762,7004,NNB,A,16
0,test,4,0.0,2-Back,,,Wed Sep 04 2024 14:02:30 GMT-0500 (Central Daylight Time),601086.0,053_o_m_n_a.png,O,space,2025,1,1,2509.600000023842,598576.3999999762,7004,NNB,A,0
0,test,4,0.0,2-Back,,,Wed Sep 04 2024 14:02:30 GMT-0500 (Central Daylight Time),601086.0,063_y_f_n_a.png,O,space,2025,2,1,2509.600000023842,598576.3999999762,7004,NNB,A,0
1,test,4,1.0,2-Back,1,z,Wed Sep 04 2024 14:02:30 GMT-0500 (Central Daylight Time),609869.6999999285,053_o_m_n_a.png,O,z,637,3,1,1662.2999999523163,608207.3999999762,7004,NNB,A,1
2,test,4,1.0,2-Back,1,z,Wed Sep 04 2024 14:02:30 GMT-0500 (Central Daylight Time),611707.1999999285,063_y_f_n_a.png,O,z,808,4,1,1831.7999999523163,609875.3999999762,7004,NNB,A,2
3,test,4,0.0,2-Back,1,m,Wed Sep 04 2024 14:02:30 GMT-0500 (Central Daylight Time),613644.3999999762,044_o_f_n_a.png,O,m,915,5,1,1928.2000000476837,611716.1999999285,7004,NNB,A,3
4,test,4,0.0,2-Back,1,m,Wed Sep 04 2024 14:02:30 GMT-0500 (Central Daylight Time),616149.0999999046,044_o_f_n_a.png,O,m,1474,6,1,2495.2999999523163,613653.7999999523,7004,NNB,A,4
5,test,4,0.0,2-Back,1,m,Wed Sep 04 2024 14:02:30 GMT-0500 (Central Daylight Time),618002.7999999523,043_m_f_n_a.png,O,m,825,7,1,1844.7999999523163,616158.0,7004,NNB,A,5
6,test,4,0.0,2-Back,1,m,Wed Sep 04 2024 14:02:30 GMT-0500 (Central Daylight Time),619739.6999999285,008_y_m_n_a.png,O,m,708,8,1,1726.1999999284744,618013.5,7004,NNB,A,6
7,test,4,1.0,2-Back,1,z,Wed Sep 04 2024 14:02:30 GMT-0500 (Central Daylight Time),621877.5999999046,043_m_f_n_a.png,O,z,1107,9,1,2126.899999976158,619750.6999999285,7004,NNB,A,7
8,test,4,0.0,2-Back,1,m,Wed Sep 04 2024 14:02:30 GMT-0500 (Central Daylight Time),624314.2999999523,058_m_m_n_a.png,O,m,1416,10,1,2426.399999976158,621887.8999999762,7004,NNB,A,8
9,test,4,0.0,2-Back,1,m,Wed Sep 04 2024 14:02:30 GMT-0500 (Central Daylight Time),626669.1999999285,008_y_m_n_a.png,O,m,1331,11,1,2346.0,624323.1999999285,7004,NNB,A,9
10,test,4,0.0,2-Back,1,m,Wed Sep 04 2024 14:02:30 GMT-0500 (Central Daylight Time),629141.0999999046,047_o_f_n_a.png,O,m,1449,12,1,2463.0999999046326,626678.0,7004,NNB,A,10
11,test,4,0.0,2-Back,1,m,Wed Sep 04 2024 14:02:30 GMT-0500 (Central Daylight Time),630911.3999999762,041_y_m_n_a.png,O,m,745,13,1,1761.8000000715256,629149.5999999046,7004,NNB,A,11
12,test,4,1.0,2-Back,1,z,Wed Sep 04 2024 14:02:30 GMT-0500 (Central Daylight Time),633282.5999999046,047_o_f_n_a.png,O,z,1344,14,1,2362.7999999523163,630919.7999999523,7004,NNB,A,12
13,test,4,1.0,2-Back,1,z,Wed Sep 04 2024 14:02:30 GMT-0500 (Central Daylight Time),635168.6999999285,041_y_m_n_a.png,O,z,853,15,1,1877.3999999761581,633291.2999999523,7004,NNB,A,13
14,test,4,0.0,2-Back,1,m,Wed Sep 04 2024 14:02:30 GMT-0500 (Central Daylight Time),637322.6999999285,045_m_m_n_a.png,O,m,1124,16,1,2143.399999976158,635179.2999999523,7004,NNB,A,14
15,test,4,0.0,2-Back,1,m,Wed Sep 04 2024 14:02:30 GMT-0500 (Central Daylight Time),639227.0999999046,050_m_f_n_a.png,O,m,884,17,1,1896.8999999761581,637330.1999999285,7004,NNB,A,15
16,test,4,1.0,2-Back,1,z,Wed Sep 04 2024 14:02:30 GMT-0500 (Central Daylight Time),640779.7999999523,045_m_m_n_a.png,O,z,523,18,1,1542.7000000476837,639237.0999999046,7004,NNB,A,16
0,test,5,1.0,2-Back,,,Wed Sep 04 2024 14:02:30 GMT-0500 (Central Daylight Time),640779.7999999523,041_y_m_n_a.png,O,space,2058,1,1,1542.7000000476837,639237.0999999046,7004,NNB,A,0
0,test,5,1.0,2-Back,,,Wed Sep 04 2024 14:02:30 GMT-0500 (Central Daylight Time),640779.7999999523,050_m_f_n_a.png,O,space,2058,2,1,1542.7000000476837,639237.0999999046,7004,NNB,A,0
1,test,5,1.0,2-Back,1,z,Wed Sep 04 2024 14:02:30 GMT-0500 (Central Daylight Time),649447.5,041_y_m_n_a.png,O,z,537,3,1,1560.9000000953674,647886.5999999046,7004,NNB,A,1
2,test,5,1.0,2-Back,1,z,Wed Sep 04 2024 14:02:30 GMT-0500 (Central Daylight Time),651384.2999999523,050_m_f_n_a.png,O,z,911,4,1,1926.3999999761581,649457.8999999762,7004,NNB,A,2
3,test,5,0.0,2-Back,1,m,Wed Sep 04 2024 14:02:30 GMT-0500 (Central Daylight Time),653254.2999999523,047_o_f_n_a.png,O,m,838,5,1,1859.2000000476837,651395.0999999046,7004,NNB,A,3
4,test,5,0.0,2-Back,1,m,Wed Sep 04 2024 14:02:30 GMT-0500 (Central Daylight Time),655759.0,041_y_m_n_a.png,O,m,1473,6,1,2493.9000000953674,653265.0999999046,7004,NNB,A,4
5,test,5,0.0,2-Back,1,m,Wed Sep 04 2024 14:02:30 GMT-0500 (Central Daylight Time),657462.7999999523,010_y_f_n_a.png,O,m,679,7,1,1692.2000000476837,655770.5999999046,7004,NNB,A,5
6,test,5,0.0,2-Back,1,m,Wed Sep 04 2024 14:02:30 GMT-0500 (Central Daylight Time),659333.2999999523,047_o_f_n_a.png,O,m,840,8,1,1860.7999999523163,657472.5,7004,NNB,A,6
7,test,5,1.0,2-Back,1,z,Wed Sep 04 2024 14:02:30 GMT-0500 (Central Daylight Time),660886.0999999046,010_y_f_n_a.png,O,z,521,9,1,1541.3999999761581,659344.6999999285,7004,NNB,A,7
8,test,5,0.0,2-Back,1,m,Wed Sep 04 2024 14:02:30 GMT-0500 (Central Daylight Time),662540.0,046_o_m_n_a.png,O,m,625,10,1,1645.6000000238419,660894.3999999762,7004,NNB,A,8
9,test,5,0.0,2-Back,1,m,Wed Sep 04 2024 14:02:30 GMT-0500 (Central Daylight Time),664610.3999999762,043_m_f_n_a.png,O,m,1051,11,1,2061.2000000476837,662549.1999999285,7004,NNB,A,9
10,test,5,0.0,2-Back,1,m,Wed Sep 04 2024 14:02:30 GMT-0500 (Central Daylight Time),666380.5,058_m_m_n_a.png,O,m,739,12,1,1759.4000000953674,664621.0999999046,7004,NNB,A,10
10,test,5,0.0,2-Back,0,m,Wed Sep 04 2024 14:02:30 GMT-0500 (Central Daylight Time),668885.0999999046,046_o_m_n_a.png,O,z,1482,13,1,2492.7999999523163,666392.2999999523,7004,NNB,A,11
10,test,5,1.0,2-Back,0,z,Wed Sep 04 2024 14:02:30 GMT-0500 (Central Daylight Time),671021.8999999762,058_m_m_n_a.png,O,m,1113,14,1,2125.899999976158,668896.0,7004,NNB,A,12
11,test,5,0.0,2-Back,1,m,Wed Sep 04 2024 14:02:30 GMT-0500 (Central Daylight Time),672709.1999999285,063_y_f_n_a.png,O,m,665,15,1,1678.6000000238419,671030.5999999046,7004,NNB,A,13
12,test,5,0.0,2-Back,1,m,Wed Sep 04 2024 14:02:30 GMT-0500 (Central Daylight Time),674495.5999999046,053_o_m_n_a.png,O,m,762,16,1,1776.5999999046326,672719.0,7004,NNB,A,14
13,test,5,0.0,2-Back,1,m,Wed Sep 04 2024 14:02:30 GMT-0500 (Central Daylight Time),676366.0999999046,043_m_f_n_a.png,O,m,847,17,1,1859.5,674506.5999999046,7004,NNB,A,15
14,test,5,1.0,2-Back,1,z,Wed Sep 04 2024 14:02:30 GMT-0500 (Central Daylight Time),678119.8999999762,053_o_m_n_a.png,O,z,720,18,1,1742.8000000715256,676377.0999999046,7004,NNB,A,16
