acc_sum,block,block_c,change,condition,correct,correct_response,datetime,endtime,face,project,response,response_time,row_sel,session_number,start_end,starttime,subject_id,task,task_vers,trial
0,prac,1,,1-Back,,,Wed Aug 28 2024 12:30:52 GMT-0500 (Central Daylight Time),,093_m_f_n_a.png,O,space,13271,1,1,,,9999,NNB,C,0
1,prac,1,0.0,1-Back,1,m,Wed Aug 28 2024 12:30:52 GMT-0500 (Central Daylight Time),151948.69999998808,098_y_f_n_a.png,O,m,715,2,1,1609.800000011921,150338.89999997616,9999,NNB,C,1
2,prac,1,1.0,1-Back,1,z,Wed Aug 28 2024 12:30:52 GMT-0500 (Central Daylight Time),153581.59999996424,098_y_f_n_a.png,O,z,828,3,1,1607.5,151974.09999996424,9999,NNB,C,2
3,prac,1,0.0,1-Back,1,m,Wed Aug 28 2024 12:30:52 GMT-0500 (Central Daylight Time),154964.5,059_o_m_n_a.png,O,m,427,4,1,1341.0,153623.5,9999,NNB,C,3
4,prac,1,0.0,1-Back,1,m,Wed Aug 28 2024 12:30:52 GMT-0500 (Central Daylight Time),156430.29999995232,092_m_m_n_a.png,O,m,519,5,1,1441.5999999642372,154988.69999998808,9999,NNB,C,4
5,prac,1,1.0,1-Back,1,z,Wed Aug 28 2024 12:30:52 GMT-0500 (Central Daylight Time),157913.29999995232,092_m_m_n_a.png,O,z,683,6,1,1458.699999988079,156454.59999996424,9999,NNB,C,5
6,prac,1,0.0,1-Back,1,m,Wed Aug 28 2024 12:30:52 GMT-0500 (Central Daylight Time),159346.09999996424,130_o_f_n_a.png,O,m,456,7,1,1407.8999999761581,157938.19999998808,9999,NNB,C,6
7,prac,1,0.0,1-Back,1,m,Wed Aug 28 2024 12:30:52 GMT-0500 (Central Daylight Time),160895.59999996424,082_m_m_n_a.png,O,m,618,8,1,1526.8999999761581,159368.69999998808,9999,NNB,C,7
8,prac,1,0.0,1-Back,1,m,Wed Aug 28 2024 12:30:52 GMT-0500 (Central Daylight Time),162528.5,093_m_f_n_a.png,O,m,825,9,1,1608.300000011921,160920.19999998808,9999,NNB,C,8
8,prac,1,1.0,1-Back,0,z,Wed Aug 28 2024 12:30:52 GMT-0500 (Central Daylight Time),163911.19999998808,093_m_f_n_a.png,O,m,578,10,1,1360.1000000238419,162551.09999996424,9999,NNB,C,9
9,prac,1,0.0,1-Back,1,m,Wed Aug 28 2024 12:30:52 GMT-0500 (Central Daylight Time),165410.89999997616,059_o_m_n_a.png,O,m,692,11,1,1461.6000000238419,163949.29999995232,9999,NNB,C,10
10,prac,1,0.0,1-Back,1,m,Wed Aug 28 2024 12:30:52 GMT-0500 (Central Daylight Time),166910.69999998808,028_y_f_n_a.png,O,m,574,12,1,1477.0,165433.69999998808,9999,NNB,C,11
0,test,1,0.0,1-Back,,,Wed Aug 28 2024 12:30:52 GMT-0500 (Central Daylight Time),166910.69999998808,098_y_f_n_a.png,O,space,22072,1,1,1477.0,165433.69999998808,9999,NNB,C,0
1,test,1,0.0,1-Back,1,m,Wed Aug 28 2024 12:30:52 GMT-0500 (Central Daylight Time),201815.39999997616,006_m_f_n_a.png,O,m,460,2,1,1482.300000011921,200333.09999996424,9999,NNB,C,1
2,test,1,0.0,1-Back,1,m,Wed Aug 28 2024 12:30:52 GMT-0500 (Central Daylight Time),203315.19999998808,028_y_f_n_a.png,O,m,466,3,1,1485.1000000238419,201830.09999996424,9999,NNB,C,2
3,test,1,1.0,1-Back,1,z,Wed Aug 28 2024 12:30:52 GMT-0500 (Central Daylight Time),204731.09999996424,028_y_f_n_a.png,O,z,383,4,1,1400.300000011921,203330.79999995232,9999,NNB,C,3
4,test,1,0.0,1-Back,1,m,Wed Aug 28 2024 12:30:52 GMT-0500 (Central Daylight Time),206347.19999998808,006_m_f_n_a.png,O,m,574,5,1,1601.300000011921,204745.89999997616,9999,NNB,C,4
5,test,1,0.0,1-Back,1,m,Wed Aug 28 2024 12:30:52 GMT-0500 (Central Daylight Time),207796.5,059_o_m_n_a.png,O,m,406,6,1,1435.1000000238419,206361.39999997616,9999,NNB,C,5
5,test,1,1.0,1-Back,0,z,Wed Aug 28 2024 12:30:52 GMT-0500 (Central Daylight Time),209279.39999997616,059_o_m_n_a.png,O,m,437,7,1,1467.3999999761581,207812.0,9999,NNB,C,6
6,test,1,0.0,1-Back,1,m,Wed Aug 28 2024 12:30:52 GMT-0500 (Central Daylight Time),210795.5,092_m_m_n_a.png,O,m,473,8,1,1500.800000011921,209294.69999998808,9999,NNB,C,7
7,test,1,0.0,1-Back,1,m,Wed Aug 28 2024 12:30:52 GMT-0500 (Central Daylight Time),212378.29999995232,130_o_f_n_a.png,O,m,541,9,1,1567.5,210810.79999995232,9999,NNB,C,8
8,test,1,0.0,1-Back,1,m,Wed Aug 28 2024 12:30:52 GMT-0500 (Central Daylight Time),214027.89999997616,092_m_m_n_a.png,O,m,632,10,1,1634.8999999761581,212393.0,9999,NNB,C,9
9,test,1,0.0,1-Back,1,m,Wed Aug 28 2024 12:30:52 GMT-0500 (Central Daylight Time),215677.29999995232,057_y_m_n_a.png,O,m,605,11,1,1633.3999999761581,214043.89999997616,9999,NNB,C,10
10,test,1,1.0,1-Back,1,z,Wed Aug 28 2024 12:30:52 GMT-0500 (Central Daylight Time),217359.89999997616,057_y_m_n_a.png,O,z,643,12,1,1661.6000000238419,215698.29999995232,9999,NNB,C,11
11,test,1,0.0,1-Back,1,m,Wed Aug 28 2024 12:30:52 GMT-0500 (Central Daylight Time),219209.39999997616,030_o_f_n_a.png,O,m,825,13,1,1842.300000011921,217367.09999996424,9999,NNB,C,12
12,test,1,1.0,1-Back,1,z,Wed Aug 28 2024 12:30:52 GMT-0500 (Central Daylight Time),221092.09999996424,030_o_f_n_a.png,O,z,848,14,1,1867.800000011921,219224.29999995232,9999,NNB,C,13
13,test,1,0.0,1-Back,1,m,Wed Aug 28 2024 12:30:52 GMT-0500 (Central Daylight Time),222858.29999995232,031_y_m_n_a.png,O,m,725,15,1,1751.0999999642372,221107.19999998808,9999,NNB,C,14
14,test,1,0.0,1-Back,1,m,Wed Aug 28 2024 12:30:52 GMT-0500 (Central Daylight Time),224557.69999998808,093_m_f_n_a.png,O,m,655,16,1,1684.1000000238419,222873.59999996424,9999,NNB,C,15
15,test,1,0.0,1-Back,1,m,Wed Aug 28 2024 12:30:52 GMT-0500 (Central Daylight Time),226523.59999996424,146_o_m_n_a.png,O,m,930,17,1,1949.0999999642372,224574.5,9999,NNB,C,16
16,test,1,0.0,1-Back,1,m,Wed Aug 28 2024 12:30:52 GMT-0500 (Central Daylight Time),228089.79999995232,093_m_f_n_a.png,O,m,525,18,1,1549.7999999523163,226540.0,9999,NNB,C,17
0,test,2,0.0,1-Back,,,Wed Aug 28 2024 12:30:52 GMT-0500 (Central Daylight Time),228089.79999995232,092_m_m_n_a.png,O,space,11558,1,1,1549.7999999523163,226540.0,9999,NNB,C,0
1,test,2,0.0,1-Back,1,m,Wed Aug 28 2024 12:30:52 GMT-0500 (Central Daylight Time),243518.0,006_m_f_n_a.png,O,m,655,2,1,1683.800000011921,241834.19999998808,9999,NNB,C,1
2,test,2,1.0,1-Back,1,z,Wed Aug 28 2024 12:30:52 GMT-0500 (Central Daylight Time),245234.09999996424,006_m_f_n_a.png,O,z,675,3,1,1693.699999988079,243540.39999997616,9999,NNB,C,2
3,test,2,0.0,1-Back,1,m,Wed Aug 28 2024 12:30:52 GMT-0500 (Central Daylight Time),247016.89999997616,092_m_m_n_a.png,O,m,742,4,1,1767.8999999761581,245249.0,9999,NNB,C,3
4,test,2,0.0,1-Back,1,m,Wed Aug 28 2024 12:30:52 GMT-0500 (Central Daylight Time),248565.89999997616,057_y_m_n_a.png,O,m,512,5,1,1533.8999999761581,247032.0,9999,NNB,C,4
5,test,2,0.0,1-Back,1,m,Wed Aug 28 2024 12:30:52 GMT-0500 (Central Daylight Time),250182.59999996424,098_y_f_n_a.png,O,m,587,6,1,1610.5999999642372,248572.0,9999,NNB,C,5
6,test,2,1.0,1-Back,1,z,Wed Aug 28 2024 12:30:52 GMT-0500 (Central Daylight Time),251998.59999996424,098_y_f_n_a.png,O,z,770,7,1,1801.300000011921,250197.29999995232,9999,NNB,C,6
7,test,2,0.0,1-Back,1,m,Wed Aug 28 2024 12:30:52 GMT-0500 (Central Daylight Time),253614.69999998808,057_y_m_n_a.png,O,m,571,8,1,1600.199999988079,252014.5,9999,NNB,C,7
8,test,2,0.0,1-Back,1,m,Wed Aug 28 2024 12:30:52 GMT-0500 (Central Daylight Time),255280.89999997616,030_o_f_n_a.png,O,m,617,9,1,1651.5,253629.39999997616,9999,NNB,C,8
9,test,2,0.0,1-Back,1,m,Wed Aug 28 2024 12:30:52 GMT-0500 (Central Daylight Time),257146.89999997616,082_m_m_n_a.png,O,m,824,10,1,1850.6000000238419,255296.29999995232,9999,NNB,C,9
10,test,2,1.0,1-Back,1,z,Wed Aug 28 2024 12:30:52 GMT-0500 (Central Daylight Time),258795.89999997616,082_m_m_n_a.png,O,z,605,11,1,1632.699999988079,257163.19999998808,9999,NNB,C,10
11,test,2,0.0,1-Back,1,m,Wed Aug 28 2024 12:30:52 GMT-0500 (Central Daylight Time),260895.59999996424,030_o_f_n_a.png,O,m,1069,12,1,2092.599999964237,258803.0,9999,NNB,C,11
12,test,2,0.0,1-Back,1,m,Wed Aug 28 2024 12:30:52 GMT-0500 (Central Daylight Time),262828.39999997616,130_o_f_n_a.png,O,m,888,13,1,1917.199999988079,260911.19999998808,9999,NNB,C,12
13,test,2,0.0,1-Back,1,m,Wed Aug 28 2024 12:30:52 GMT-0500 (Central Daylight Time),265311.0,059_o_m_n_a.png,O,m,1436,14,1,2467.900000035763,262843.09999996424,9999,NNB,C,13
14,test,2,0.0,1-Back,1,m,Wed Aug 28 2024 12:30:52 GMT-0500 (Central Daylight Time),267810.0,146_o_m_n_a.png,O,m,1449,15,1,2483.800000011921,265326.1999999881,9999,NNB,C,14
14,test,2,1.0,1-Back,0,z,Wed Aug 28 2024 12:30:52 GMT-0500 (Central Daylight Time),269826.09999996424,146_o_m_n_a.png,O,m,974,16,1,2000.8999999761581,267825.1999999881,9999,NNB,C,15
15,test,2,0.0,1-Back,1,m,Wed Aug 28 2024 12:30:52 GMT-0500 (Central Daylight Time),271925.39999997616,031_y_m_n_a.png,O,m,1055,17,1,2084.5,269840.89999997616,9999,NNB,C,16
15,test,2,1.0,1-Back,0,z,Wed Aug 28 2024 12:30:52 GMT-0500 (Central Daylight Time),273907.7999999523,031_y_m_n_a.png,O,m,948,18,1,1967.5,271940.2999999523,9999,NNB,C,17
0,test,3,1.0,1-Back,,,Wed Aug 28 2024 12:30:52 GMT-0500 (Central Daylight Time),273907.7999999523,028_y_f_n_a.png,O,space,1971,1,1,1967.5,271940.2999999523,9999,NNB,C,0
1,test,3,0.0,1-Back,1,m,Wed Aug 28 2024 12:30:52 GMT-0500 (Central Daylight Time),279622.7999999523,146_o_m_n_a.png,O,m,529,1,1,1542.7999999523163,278080.0,9999,NNB,C,1
2,test,3,1.0,1-Back,1,z,Wed Aug 28 2024 12:30:52 GMT-0500 (Central Daylight Time),281338.89999997616,146_o_m_n_a.png,O,z,656,1,1,1701.1000000238419,279637.7999999523,9999,NNB,C,2
3,test,3,0.0,1-Back,1,m,Wed Aug 28 2024 12:30:52 GMT-0500 (Central Daylight Time),283321.5,093_m_f_n_a.png,O,m,942,1,1,1967.7000000476837,281353.7999999523,9999,NNB,C,3
4,test,3,1.0,1-Back,1,z,Wed Aug 28 2024 12:30:52 GMT-0500 (Central Daylight Time),285054.2999999523,093_m_f_n_a.png,O,z,687,1,1,1718.0999999642372,283336.1999999881,9999,NNB,C,4
5,test,3,0.0,1-Back,1,m,Wed Aug 28 2024 12:30:52 GMT-0500 (Central Daylight Time),286803.6999999881,030_o_f_n_a.png,O,m,731,1,1,1735.1000000238419,285068.59999996424,9999,NNB,C,5
6,test,3,0.0,1-Back,1,m,Wed Aug 28 2024 12:30:52 GMT-0500 (Central Daylight Time),288453.1999999881,057_y_m_n_a.png,O,m,604,1,1,1633.9000000357628,286819.2999999523,9999,NNB,C,6
7,test,3,0.0,1-Back,1,m,Wed Aug 28 2024 12:30:52 GMT-0500 (Central Daylight Time),290252.59999996424,030_o_f_n_a.png,O,m,763,1,1,1782.300000011921,288470.2999999523,9999,NNB,C,7
8,test,3,0.0,1-Back,1,m,Wed Aug 28 2024 12:30:52 GMT-0500 (Central Daylight Time),292185.39999997616,031_y_m_n_a.png,O,m,885,1,1,1918.0,290267.39999997616,9999,NNB,C,8
9,test,3,1.0,1-Back,1,z,Wed Aug 28 2024 12:30:52 GMT-0500 (Central Daylight Time),293901.39999997616,031_y_m_n_a.png,O,z,680,1,1,1701.1000000238419,292200.2999999523,9999,NNB,C,9
10,test,3,0.0,1-Back,1,m,Wed Aug 28 2024 12:30:52 GMT-0500 (Central Daylight Time),295567.0,006_m_f_n_a.png,O,m,626,1,1,1650.5,293916.5,9999,NNB,C,10
11,test,3,0.0,1-Back,1,m,Wed Aug 28 2024 12:30:52 GMT-0500 (Central Daylight Time),297233.6999999881,098_y_f_n_a.png,O,m,641,1,1,1663.300000011921,295570.39999997616,9999,NNB,C,11
12,test,3,1.0,1-Back,1,z,Wed Aug 28 2024 12:30:52 GMT-0500 (Central Daylight Time),299049.09999996424,098_y_f_n_a.png,O,z,767,1,1,1799.699999988079,297249.39999997616,9999,NNB,C,12
13,test,3,0.0,1-Back,1,m,Wed Aug 28 2024 12:30:52 GMT-0500 (Central Daylight Time),300615.7999999523,006_m_f_n_a.png,O,m,544,1,1,1561.5,299054.2999999523,9999,NNB,C,13
14,test,3,0.0,1-Back,1,m,Wed Aug 28 2024 12:30:52 GMT-0500 (Central Daylight Time),302182.0,092_m_m_n_a.png,O,m,528,1,1,1551.4000000357628,300630.59999996424,9999,NNB,C,14
14,test,3,1.0,1-Back,0,z,Wed Aug 28 2024 12:30:52 GMT-0500 (Central Daylight Time),303881.39999997616,092_m_m_n_a.png,O,m,658,1,1,1685.0,302196.39999997616,9999,NNB,C,15
15,test,3,0.0,1-Back,1,m,Wed Aug 28 2024 12:30:52 GMT-0500 (Central Daylight Time),305730.59999996424,130_o_f_n_a.png,O,m,815,1,1,1833.5999999642372,303897.0,9999,NNB,C,16
16,test,3,1.0,1-Back,1,z,Wed Aug 28 2024 12:30:52 GMT-0500 (Central Daylight Time),307646.7999999523,130_o_f_n_a.png,O,z,894,1,1,1909.0,305737.7999999523,9999,NNB,C,17
0,test,4,1.0,1-Back,,,Wed Aug 28 2024 12:30:52 GMT-0500 (Central Daylight Time),307646.7999999523,093_m_f_n_a.png,O,space,2735,1,1,1909.0,305737.7999999523,9999,NNB,C,0
1,test,4,0.0,1-Back,1,m,Wed Aug 28 2024 12:30:52 GMT-0500 (Central Daylight Time),314644.5,146_o_m_n_a.png,O,m,1038,2,1,2067.100000023842,312577.39999997616,9999,NNB,C,1
2,test,4,0.0,1-Back,1,m,Wed Aug 28 2024 12:30:52 GMT-0500 (Central Daylight Time),316410.6999999881,093_m_f_n_a.png,O,m,725,3,1,1748.5,314662.1999999881,9999,NNB,C,2
3,test,4,0.0,1-Back,1,m,Wed Aug 28 2024 12:30:52 GMT-0500 (Central Daylight Time),318126.6999999881,030_o_f_n_a.png,O,m,678,4,1,1700.6000000238419,316426.09999996424,9999,NNB,C,3
4,test,4,1.0,1-Back,1,z,Wed Aug 28 2024 12:30:52 GMT-0500 (Central Daylight Time),320026.09999996424,030_o_f_n_a.png,O,z,858,5,1,1882.800000011921,318143.2999999523,9999,NNB,C,4
5,test,4,0.0,1-Back,1,m,Wed Aug 28 2024 12:30:52 GMT-0500 (Central Daylight Time),321908.6999999881,098_y_f_n_a.png,O,m,846,6,1,1867.199999988079,320041.5,9999,NNB,C,5
6,test,4,0.0,1-Back,1,m,Wed Aug 28 2024 12:30:52 GMT-0500 (Central Daylight Time),324624.39999997616,057_y_m_n_a.png,O,m,1675,7,1,2701.199999988079,321923.1999999881,9999,NNB,C,6
7,test,4,1.0,1-Back,1,z,Wed Aug 28 2024 12:30:52 GMT-0500 (Central Daylight Time),326506.5,057_y_m_n_a.png,O,z,847,8,1,1867.4000000357628,324639.09999996424,9999,NNB,C,7
8,test,4,0.0,1-Back,1,m,Wed Aug 28 2024 12:30:52 GMT-0500 (Central Daylight Time),328122.6999999881,098_y_f_n_a.png,O,m,589,9,1,1612.300000011921,326510.39999997616,9999,NNB,C,8
9,test,4,0.0,1-Back,1,m,Wed Aug 28 2024 12:30:52 GMT-0500 (Central Daylight Time),329855.59999996424,082_m_m_n_a.png,O,m,701,10,1,1729.300000011921,328126.2999999523,9999,NNB,C,9
10,test,4,1.0,1-Back,1,z,Wed Aug 28 2024 12:30:52 GMT-0500 (Central Daylight Time),331488.2999999523,082_m_m_n_a.png,O,z,609,11,1,1627.3999999761581,329860.89999997616,9999,NNB,C,10
11,test,4,0.0,1-Back,1,m,Wed Aug 28 2024 12:30:52 GMT-0500 (Central Daylight Time),333038.39999997616,130_o_f_n_a.png,O,m,529,12,1,1546.199999988079,331492.1999999881,9999,NNB,C,11
12,test,4,0.0,1-Back,1,m,Wed Aug 28 2024 12:30:52 GMT-0500 (Central Daylight Time),334587.2999999523,059_o_m_n_a.png,O,m,506,13,1,1532.7999999523163,333054.5,9999,NNB,C,12
13,test,4,0.0,1-Back,1,m,Wed Aug 28 2024 12:30:52 GMT-0500 (Central Daylight Time),336369.89999997616,130_o_f_n_a.png,O,m,756,14,1,1777.699999988079,334592.1999999881,9999,NNB,C,13
14,test,4,0.0,1-Back,1,m,Wed Aug 28 2024 12:30:52 GMT-0500 (Central Daylight Time),337969.5,028_y_f_n_a.png,O,m,574,15,1,1595.4000000357628,336374.09999996424,9999,NNB,C,14
15,test,4,1.0,1-Back,1,z,Wed Aug 28 2024 12:30:52 GMT-0500 (Central Daylight Time),339602.89999997616,028_y_f_n_a.png,O,z,591,16,1,1611.3999999761581,337991.5,9999,NNB,C,15
16,test,4,0.0,1-Back,1,m,Wed Aug 28 2024 12:30:52 GMT-0500 (Central Daylight Time),341168.39999997616,006_m_f_n_a.png,O,m,525,17,1,1548.8999999761581,339619.5,9999,NNB,C,16
17,test,4,1.0,1-Back,1,z,Wed Aug 28 2024 12:30:52 GMT-0500 (Central Daylight Time),342901.1999999881,006_m_f_n_a.png,O,z,712,18,1,1729.1000000238419,341172.09999996424,9999,NNB,C,17
0,test,5,1.0,1-Back,,,Wed Aug 28 2024 12:30:52 GMT-0500 (Central Daylight Time),342901.1999999881,059_o_m_n_a.png,O,space,892,1,1,1729.1000000238419,341172.09999996424,9999,NNB,C,0
1,test,5,1.0,1-Back,1,z,Wed Aug 28 2024 12:30:52 GMT-0500 (Central Daylight Time),347632.89999997616,059_o_m_n_a.png,O,z,641,2,1,1661.3999999761581,345971.5,9999,NNB,C,1
2,test,5,0.0,1-Back,1,m,Wed Aug 28 2024 12:30:52 GMT-0500 (Central Daylight Time),349216.39999997616,098_y_f_n_a.png,O,m,561,3,1,1579.699999988079,347636.6999999881,9999,NNB,C,2
3,test,5,0.0,1-Back,1,m,Wed Aug 28 2024 12:30:52 GMT-0500 (Central Daylight Time),350815.2999999523,057_y_m_n_a.png,O,m,559,4,1,1583.5,349231.7999999523,9999,NNB,C,3
4,test,5,0.0,1-Back,1,m,Wed Aug 28 2024 12:30:52 GMT-0500 (Central Daylight Time),352598.5,098_y_f_n_a.png,O,m,754,5,1,1779.4000000357628,350819.09999996424,9999,NNB,C,4
5,test,5,0.0,1-Back,1,m,Wed Aug 28 2024 12:30:52 GMT-0500 (Central Daylight Time),354264.0,092_m_m_n_a.png,O,m,618,6,1,1650.800000011921,352613.1999999881,9999,NNB,C,5
6,test,5,1.0,1-Back,1,z,Wed Aug 28 2024 12:30:52 GMT-0500 (Central Daylight Time),356013.5,092_m_m_n_a.png,O,z,720,7,1,1746.0,354267.5,9999,NNB,C,6
7,test,5,0.0,1-Back,1,m,Wed Aug 28 2024 12:30:52 GMT-0500 (Central Daylight Time),357496.2999999523,028_y_f_n_a.png,O,m,451,8,1,1479.199999988079,356017.09999996424,9999,NNB,C,7
8,test,5,0.0,1-Back,1,m,Wed Aug 28 2024 12:30:52 GMT-0500 (Central Daylight Time),359029.2999999523,031_y_m_n_a.png,O,m,504,9,1,1529.2999999523163,357500.0,9999,NNB,C,8
9,test,5,0.0,1-Back,1,m,Wed Aug 28 2024 12:30:52 GMT-0500 (Central Daylight Time),360762.6999999881,028_y_f_n_a.png,O,m,700,10,1,1730.0,359032.6999999881,9999,NNB,C,9
10,test,5,0.0,1-Back,1,m,Wed Aug 28 2024 12:30:52 GMT-0500 (Central Daylight Time),362295.39999997616,130_o_f_n_a.png,O,m,487,11,1,1516.199999988079,360779.1999999881,9999,NNB,C,10
11,test,5,1.0,1-Back,1,z,Wed Aug 28 2024 12:30:52 GMT-0500 (Central Daylight Time),363926.39999997616,130_o_f_n_a.png,O,z,597,12,1,1615.6000000238419,362310.7999999523,9999,NNB,C,11
12,test,5,0.0,1-Back,1,m,Wed Aug 28 2024 12:30:52 GMT-0500 (Central Daylight Time),365477.59999996424,146_o_m_n_a.png,O,m,529,13,1,1541.5999999642372,363936.0,9999,NNB,C,12
13,test,5,0.0,1-Back,1,m,Wed Aug 28 2024 12:30:52 GMT-0500 (Central Daylight Time),367060.59999996424,093_m_f_n_a.png,O,m,539,14,1,1566.5,365494.09999996424,9999,NNB,C,13
13,test,5,1.0,1-Back,0,z,Wed Aug 28 2024 12:30:52 GMT-0500 (Central Daylight Time),368676.6999999881,093_m_f_n_a.png,O,m,572,15,1,1601.199999988079,367075.5,9999,NNB,C,14
14,test,5,0.0,1-Back,1,m,Wed Aug 28 2024 12:30:52 GMT-0500 (Central Daylight Time),370276.09999996424,146_o_m_n_a.png,O,m,556,16,1,1583.5999999642372,368692.5,9999,NNB,C,15
15,test,5,0.0,1-Back,1,m,Wed Aug 28 2024 12:30:52 GMT-0500 (Central Daylight Time),371825.5,006_m_f_n_a.png,O,m,509,17,1,1534.5,370291.0,9999,NNB,C,16
16,test,5,0.0,1-Back,1,m,Wed Aug 28 2024 12:30:52 GMT-0500 (Central Daylight Time),373375.1999999881,082_m_m_n_a.png,O,m,511,18,1,1534.6000000238419,371840.59999996424,9999,NNB,C,17
0,prac,1,0.0,2-Back,,,Wed Aug 28 2024 12:30:52 GMT-0500 (Central Daylight Time),373375.1999999881,031_y_m_n_a.png,O,space,20287,1,1,1534.6000000238419,371840.59999996424,9999,NNB,C,0
0,prac,1,0.0,2-Back,,,Wed Aug 28 2024 12:30:52 GMT-0500 (Central Daylight Time),373375.1999999881,006_m_f_n_a.png,O,space,20287,2,1,1534.6000000238419,371840.59999996424,9999,NNB,C,0
1,prac,1,1.0,2-Back,1,m,Wed Aug 28 2024 12:30:52 GMT-0500 (Central Daylight Time),506098.2999999523,146_o_m_n_a.png,O,m,644,3,1,1682.2999999523163,504416.0,9999,NNB,C,1
2,prac,1,0.0,2-Back,1,m,Wed Aug 28 2024 12:30:52 GMT-0500 (Central Daylight Time),507864.59999996424,130_o_f_n_a.png,O,m,675,4,1,1708.300000011921,506156.2999999523,9999,NNB,C,2
3,prac,1,0.0,2-Back,1,z,Wed Aug 28 2024 12:30:52 GMT-0500 (Central Daylight Time),509630.2999999523,146_o_m_n_a.png,O,z,664,5,1,1744.0,507886.2999999523,9999,NNB,C,3
4,prac,1,1.0,2-Back,1,z,Wed Aug 28 2024 12:30:52 GMT-0500 (Central Daylight Time),511163.09999996424,130_o_f_n_a.png,O,z,734,6,1,1511.699999988079,509651.39999997616,9999,NNB,C,4
5,prac,1,0.0,2-Back,1,m,Wed Aug 28 2024 12:30:52 GMT-0500 (Central Daylight Time),512512.6999999881,082_m_m_n_a.png,O,m,323,7,1,1330.699999988079,511182.0,9999,NNB,C,5
6,prac,1,0.0,2-Back,1,m,Wed Aug 28 2024 12:30:52 GMT-0500 (Central Daylight Time),513912.09999996424,059_o_m_n_a.png,O,m,345,8,1,1362.5999999642372,512549.5,9999,NNB,C,6
7,prac,1,0.0,2-Back,1,m,Wed Aug 28 2024 12:30:52 GMT-0500 (Central Daylight Time),515478.39999997616,028_y_f_n_a.png,O,m,527,9,1,1540.3999999761581,513938.0,9999,NNB,C,7
8,prac,1,1.0,2-Back,1,z,Wed Aug 28 2024 12:30:52 GMT-0500 (Central Daylight Time),516677.1999999881,059_o_m_n_a.png,O,z,374,10,1,1177.300000011921,515499.89999997616,9999,NNB,C,8
9,prac,1,0.0,2-Back,1,m,Wed Aug 28 2024 12:30:52 GMT-0500 (Central Daylight Time),518344.09999996424,098_y_f_n_a.png,O,m,617,11,1,1659.800000011921,516684.2999999523,9999,NNB,C,9
10,prac,1,0.0,2-Back,1,m,Wed Aug 28 2024 12:30:52 GMT-0500 (Central Daylight Time),519893.59999996424,082_m_m_n_a.png,O,m,516,12,1,1527.3999999761581,518366.1999999881,9999,NNB,C,10
0,test,1,0.0,2-Back,,,Wed Aug 28 2024 12:30:52 GMT-0500 (Central Daylight Time),519893.59999996424,057_y_m_n_a.png,O,space,12031,1,1,1527.3999999761581,518366.1999999881,9999,NNB,C,0
0,test,1,0.0,2-Back,,,Wed Aug 28 2024 12:30:52 GMT-0500 (Central Daylight Time),519893.59999996424,057_y_m_n_a.png,O,space,12031,2,1,1527.3999999761581,518366.1999999881,9999,NNB,C,0
1,test,1,0.0,2-Back,1,m,Wed Aug 28 2024 12:30:52 GMT-0500 (Central Daylight Time),546024.0999999642,130_o_f_n_a.png,O,m,533,3,1,1590.699999988079,544433.3999999762,9999,NNB,C,1
2,test,1,0.0,2-Back,1,m,Wed Aug 28 2024 12:30:52 GMT-0500 (Central Daylight Time),547633.5999999642,092_m_m_n_a.png,O,m,581,4,1,1593.5,546040.0999999642,9999,NNB,C,2
3,test,1,1.0,2-Back,1,z,Wed Aug 28 2024 12:30:52 GMT-0500 (Central Daylight Time),549133.6999999881,130_o_f_n_a.png,O,z,480,5,1,1496.199999988079,547637.5,9999,NNB,C,3
4,test,1,0.0,2-Back,1,m,Wed Aug 28 2024 12:30:52 GMT-0500 (Central Daylight Time),550616.6999999881,098_y_f_n_a.png,O,m,424,6,1,1468.6000000238419,549148.0999999642,9999,NNB,C,4
5,test,1,0.0,2-Back,1,m,Wed Aug 28 2024 12:30:52 GMT-0500 (Central Daylight Time),552166.0999999642,092_m_m_n_a.png,O,m,512,7,1,1530.0,550636.0999999642,9999,NNB,C,5
5,test,1,1.0,2-Back,0,z,Wed Aug 28 2024 12:30:52 GMT-0500 (Central Daylight Time),553882.0999999642,098_y_f_n_a.png,O,m,674,8,1,1702.199999988079,552179.8999999762,9999,NNB,C,6
6,test,1,0.0,2-Back,1,m,Wed Aug 28 2024 12:30:52 GMT-0500 (Central Daylight Time),555548.2999999523,031_y_m_n_a.png,O,m,622,9,1,1650.7999999523163,553897.5,9999,NNB,C,7
7,test,1,0.0,2-Back,1,m,Wed Aug 28 2024 12:30:52 GMT-0500 (Central Daylight Time),557181.0,030_o_f_n_a.png,O,m,596,10,1,1618.9000000357628,555562.0999999642,9999,NNB,C,8
8,test,1,1.0,2-Back,1,z,Wed Aug 28 2024 12:30:52 GMT-0500 (Central Daylight Time),558680.5,031_y_m_n_a.png,O,z,451,11,1,1485.2000000476837,557195.2999999523,9999,NNB,C,9
9,test,1,0.0,2-Back,1,m,Wed Aug 28 2024 12:30:52 GMT-0500 (Central Daylight Time),560547.0999999642,006_m_f_n_a.png,O,m,849,12,1,1852.300000011921,558694.7999999523,9999,NNB,C,10
10,test,1,0.0,2-Back,1,m,Wed Aug 28 2024 12:30:52 GMT-0500 (Central Daylight Time),562595.8999999762,006_m_f_n_a.png,O,m,1014,13,1,2034.1000000238419,560561.7999999523,9999,NNB,C,11
11,test,1,0.0,2-Back,1,m,Wed Aug 28 2024 12:30:52 GMT-0500 (Central Daylight Time),564428.5999999642,146_o_m_n_a.png,O,m,796,14,1,1818.0999999642372,562610.5,9999,NNB,C,12
12,test,1,0.0,2-Back,1,m,Wed Aug 28 2024 12:30:52 GMT-0500 (Central Daylight Time),566078.0999999642,030_o_f_n_a.png,O,m,612,15,1,1634.5999999642372,564443.5,9999,NNB,C,13
13,test,1,1.0,2-Back,1,z,Wed Aug 28 2024 12:30:52 GMT-0500 (Central Daylight Time),567610.7999999523,146_o_m_n_a.png,O,z,490,16,1,1518.699999988079,566092.0999999642,9999,NNB,C,14
14,test,1,0.0,2-Back,1,m,Wed Aug 28 2024 12:30:52 GMT-0500 (Central Daylight Time),569227.0,093_m_f_n_a.png,O,m,573,17,1,1601.7000000476837,567625.2999999523,9999,NNB,C,15
15,test,1,0.0,2-Back,1,m,Wed Aug 28 2024 12:30:52 GMT-0500 (Central Daylight Time),571243.0,082_m_m_n_a.png,O,m,982,18,1,2000.7000000476837,569242.2999999523,9999,NNB,C,16
0,test,2,0.0,2-Back,,,Wed Aug 28 2024 12:30:52 GMT-0500 (Central Daylight Time),571243.0,082_m_m_n_a.png,O,space,867,1,1,2000.7000000476837,569242.2999999523,9999,NNB,C,0
0,test,2,0.0,2-Back,,,Wed Aug 28 2024 12:30:52 GMT-0500 (Central Daylight Time),571243.0,028_y_f_n_a.png,O,space,867,2,1,2000.7000000476837,569242.2999999523,9999,NNB,C,0
1,test,2,1.0,2-Back,1,z,Wed Aug 28 2024 12:30:52 GMT-0500 (Central Daylight Time),579307.0,082_m_m_n_a.png,O,z,857,3,1,1868.5,577438.5,9999,NNB,C,1
2,test,2,0.0,2-Back,1,m,Wed Aug 28 2024 12:30:52 GMT-0500 (Central Daylight Time),581039.7999999523,093_m_f_n_a.png,O,m,685,4,1,1718.5999999642372,579321.1999999881,9999,NNB,C,2
3,test,2,0.0,2-Back,1,m,Wed Aug 28 2024 12:30:52 GMT-0500 (Central Daylight Time),582772.5,028_y_f_n_a.png,O,m,677,5,1,1717.0,581055.5,9999,NNB,C,3
4,test,2,0.0,2-Back,1,m,Wed Aug 28 2024 12:30:52 GMT-0500 (Central Daylight Time),584355.2999999523,146_o_m_n_a.png,O,m,548,6,1,1568.8999999761581,582786.3999999762,9999,NNB,C,4
5,test,2,0.0,2-Back,1,m,Wed Aug 28 2024 12:30:52 GMT-0500 (Central Daylight Time),586038.1999999881,098_y_f_n_a.png,O,m,644,7,1,1668.6000000238419,584369.5999999642,9999,NNB,C,5
5,test,2,1.0,2-Back,0,z,Wed Aug 28 2024 12:30:52 GMT-0500 (Central Daylight Time),587954.2999999523,146_o_m_n_a.png,O,m,866,8,1,1902.0,586052.2999999523,9999,NNB,C,6
6,test,2,0.0,2-Back,1,m,Wed Aug 28 2024 12:30:52 GMT-0500 (Central Daylight Time),589736.7999999523,031_y_m_n_a.png,O,m,734,9,1,1767.699999988079,587969.0999999642,9999,NNB,C,7
7,test,2,0.0,2-Back,1,m,Wed Aug 28 2024 12:30:52 GMT-0500 (Central Daylight Time),591869.5,031_y_m_n_a.png,O,m,1087,10,1,2118.2000000476837,589751.2999999523,9999,NNB,C,8
8,test,2,0.0,2-Back,1,m,Wed Aug 28 2024 12:30:52 GMT-0500 (Central Daylight Time),593435.5999999642,006_m_f_n_a.png,O,m,531,11,1,1539.0,591896.5999999642,9999,NNB,C,9
9,test,2,0.0,2-Back,1,m,Wed Aug 28 2024 12:30:52 GMT-0500 (Central Daylight Time),595118.5,028_y_f_n_a.png,O,m,653,12,1,1668.7000000476837,593449.7999999523,9999,NNB,C,10
10,test,2,1.0,2-Back,1,z,Wed Aug 28 2024 12:30:52 GMT-0500 (Central Daylight Time),596851.2999999523,006_m_f_n_a.png,O,z,690,13,1,1712.0999999642372,595139.1999999881,9999,NNB,C,11
11,test,2,0.0,2-Back,1,m,Wed Aug 28 2024 12:30:52 GMT-0500 (Central Daylight Time),598484.0,059_o_m_n_a.png,O,m,606,14,1,1619.9000000357628,596864.0999999642,9999,NNB,C,12
12,test,2,0.0,2-Back,1,m,Wed Aug 28 2024 12:30:52 GMT-0500 (Central Daylight Time),600250.5999999642,059_o_m_n_a.png,O,m,733,15,1,1751.800000011921,598498.7999999523,9999,NNB,C,13
13,test,2,0.0,2-Back,1,m,Wed Aug 28 2024 12:30:52 GMT-0500 (Central Daylight Time),601849.6999999881,030_o_f_n_a.png,O,m,550,16,1,1585.199999988079,600264.5,9999,NNB,C,14
14,test,2,0.0,2-Back,1,m,Wed Aug 28 2024 12:30:52 GMT-0500 (Central Daylight Time),604048.7999999523,092_m_m_n_a.png,O,m,602,17,1,2184.199999988079,601864.5999999642,9999,NNB,C,15
14,test,2,1.0,2-Back,0,z,Wed Aug 28 2024 12:30:52 GMT-0500 (Central Daylight Time),605615.0,030_o_f_n_a.png,O,m,519,18,1,1550.9000000357628,604064.0999999642,9999,NNB,C,16
0,test,3,1.0,2-Back,,,Wed Aug 28 2024 12:30:52 GMT-0500 (Central Daylight Time),605615.0,057_y_m_n_a.png,O,space,695,1,1,1550.9000000357628,604064.0999999642,9999,NNB,C,0
0,test,3,1.0,2-Back,,,Wed Aug 28 2024 12:30:52 GMT-0500 (Central Daylight Time),605615.0,057_y_m_n_a.png,O,space,695,2,1,1550.9000000357628,604064.0999999642,9999,NNB,C,0
1,test,3,0.0,2-Back,1,m,Wed Aug 28 2024 12:30:52 GMT-0500 (Central Daylight Time),613279.1999999881,030_o_f_n_a.png,O,m,644,3,1,1666.4000000357628,611612.7999999523,9999,NNB,C,1
2,test,3,0.0,2-Back,1,m,Wed Aug 28 2024 12:30:52 GMT-0500 (Central Daylight Time),614928.5999999642,082_m_m_n_a.png,O,m,610,4,1,1635.0,613293.5999999642,9999,NNB,C,2
3,test,3,1.0,2-Back,1,z,Wed Aug 28 2024 12:30:52 GMT-0500 (Central Daylight Time),616578.0,030_o_f_n_a.png,O,z,615,5,1,1629.0,614949.0,9999,NNB,C,3
4,test,3,0.0,2-Back,1,m,Wed Aug 28 2024 12:30:52 GMT-0500 (Central Daylight Time),618310.1999999881,031_y_m_n_a.png,O,m,693,6,1,1718.1000000238419,616592.0999999642,9999,NNB,C,4
5,test,3,0.0,2-Back,1,m,Wed Aug 28 2024 12:30:52 GMT-0500 (Central Daylight Time),619943.6999999881,082_m_m_n_a.png,O,m,602,7,1,1629.199999988079,618314.5,9999,NNB,C,5
5,test,3,1.0,2-Back,0,z,Wed Aug 28 2024 12:30:52 GMT-0500 (Central Daylight Time),621909.5999999642,031_y_m_n_a.png,O,m,921,8,1,1951.5999999642372,619958.0,9999,NNB,C,6
6,test,3,0.0,2-Back,1,m,Wed Aug 28 2024 12:30:52 GMT-0500 (Central Daylight Time),623625.7999999523,028_y_f_n_a.png,O,m,675,9,1,1701.7999999523163,621924.0,9999,NNB,C,7
7,test,3,0.0,2-Back,1,m,Wed Aug 28 2024 12:30:52 GMT-0500 (Central Daylight Time),625325.1999999881,092_m_m_n_a.png,O,m,655,10,1,1685.1000000238419,623640.0999999642,9999,NNB,C,8
7,test,3,1.0,2-Back,0,z,Wed Aug 28 2024 12:30:52 GMT-0500 (Central Daylight Time),627107.7999999523,028_y_f_n_a.png,O,m,747,11,1,1768.3999999761581,625339.3999999762,9999,NNB,C,9
7,test,3,1.0,2-Back,0,z,Wed Aug 28 2024 12:30:52 GMT-0500 (Central Daylight Time),628824.0999999642,092_m_m_n_a.png,O,m,668,12,1,1702.5,627121.5999999642,9999,NNB,C,10
7,test,3,0.0,2-Back,0,m,Wed Aug 28 2024 12:30:52 GMT-0500 (Central Daylight Time),630739.6999999881,030_o_f_n_a.png,O,z,871,13,1,1899.0,628840.6999999881,9999,NNB,C,11
8,test,3,0.0,2-Back,1,m,Wed Aug 28 2024 12:30:52 GMT-0500 (Central Daylight Time),632472.7999999523,093_m_f_n_a.png,O,m,685,14,1,1726.5,630746.2999999523,9999,NNB,C,12
9,test,3,0.0,2-Back,1,m,Wed Aug 28 2024 12:30:52 GMT-0500 (Central Daylight Time),634105.5999999642,146_o_m_n_a.png,O,m,591,15,1,1618.199999988079,632487.3999999762,9999,NNB,C,13
9,test,3,1.0,2-Back,0,z,Wed Aug 28 2024 12:30:52 GMT-0500 (Central Daylight Time),635888.5,093_m_f_n_a.png,O,m,735,16,1,1768.7000000476837,634119.7999999523,9999,NNB,C,14
10,test,3,0.0,2-Back,1,m,Wed Aug 28 2024 12:30:52 GMT-0500 (Central Daylight Time),637571.1999999881,130_o_f_n_a.png,O,m,648,17,1,1668.5,635902.6999999881,9999,NNB,C,15
11,test,3,0.0,2-Back,1,m,Wed Aug 28 2024 12:30:52 GMT-0500 (Central Daylight Time),639603.7999999523,130_o_f_n_a.png,O,m,989,18,1,2018.0999999642372,637585.6999999881,9999,NNB,C,16
0,test,4,0.0,2-Back,,,Wed Aug 28 2024 12:30:52 GMT-0500 (Central Daylight Time),639603.7999999523,059_o_m_n_a.png,O,space,906,1,1,2018.0999999642372,637585.6999999881,9999,NNB,C,0
0,test,4,0.0,2-Back,,,Wed Aug 28 2024 12:30:52 GMT-0500 (Central Daylight Time),639603.7999999523,098_y_f_n_a.png,O,space,906,2,1,2018.0999999642372,637585.6999999881,9999,NNB,C,0
0,test,4,1.0,2-Back,0,z,Wed Aug 28 2024 12:30:52 GMT-0500 (Central Daylight Time),647817.7999999523,059_o_m_n_a.png,O,m,663,3,1,1717.5,646100.2999999523,9999,NNB,C,1
1,test,4,1.0,2-Back,1,z,Wed Aug 28 2024 12:30:52 GMT-0500 (Central Daylight Time),650332.8999999762,098_y_f_n_a.png,O,z,1478,4,1,2501.100000023842,647831.7999999523,9999,NNB,C,2
2,test,4,0.0,2-Back,1,m,Wed Aug 28 2024 12:30:52 GMT-0500 (Central Daylight Time),652149.6999999881,030_o_f_n_a.png,O,m,795,5,1,1809.0,650340.6999999881,9999,NNB,C,3
3,test,4,0.0,2-Back,1,m,Wed Aug 28 2024 12:30:52 GMT-0500 (Central Daylight Time),653865.8999999762,030_o_f_n_a.png,O,m,683,6,1,1702.3999999761581,652163.5,9999,NNB,C,4
4,test,4,0.0,2-Back,1,m,Wed Aug 28 2024 12:30:52 GMT-0500 (Central Daylight Time),655498.5999999642,006_m_f_n_a.png,O,m,591,7,1,1618.3999999761581,653880.1999999881,9999,NNB,C,5
5,test,4,0.0,2-Back,1,m,Wed Aug 28 2024 12:30:52 GMT-0500 (Central Daylight Time),657797.6999999881,031_y_m_n_a.png,O,m,1278,8,1,2285.300000011921,655512.3999999762,9999,NNB,C,6
5,test,4,1.0,2-Back,0,z,Wed Aug 28 2024 12:30:52 GMT-0500 (Central Daylight Time),659563.7999999523,006_m_f_n_a.png,O,m,723,9,1,1751.3999999761581,657812.3999999762,9999,NNB,C,7
6,test,4,0.0,2-Back,1,m,Wed Aug 28 2024 12:30:52 GMT-0500 (Central Daylight Time),661329.8999999762,092_m_m_n_a.png,O,m,717,10,1,1752.6000000238419,659577.2999999523,9999,NNB,C,8
7,test,4,0.0,2-Back,1,m,Wed Aug 28 2024 12:30:52 GMT-0500 (Central Daylight Time),663062.7999999523,031_y_m_n_a.png,O,m,687,11,1,1718.5999999642372,661344.1999999881,9999,NNB,C,9
8,test,4,0.0,2-Back,1,m,Wed Aug 28 2024 12:30:52 GMT-0500 (Central Daylight Time),665261.8999999762,130_o_f_n_a.png,O,m,1153,12,1,2184.800000011921,663077.0999999642,9999,NNB,C,10
9,test,4,0.0,2-Back,1,m,Wed Aug 28 2024 12:30:52 GMT-0500 (Central Daylight Time),666844.7999999523,057_y_m_n_a.png,O,m,538,13,1,1565.5999999642372,665279.1999999881,9999,NNB,C,11
10,test,4,1.0,2-Back,1,z,Wed Aug 28 2024 12:30:52 GMT-0500 (Central Daylight Time),668677.3999999762,130_o_f_n_a.png,O,z,796,14,1,1813.1000000238419,666864.2999999523,9999,NNB,C,12
10,test,4,1.0,2-Back,0,z,Wed Aug 28 2024 12:30:52 GMT-0500 (Central Daylight Time),670310.2999999523,057_y_m_n_a.png,O,m,588,15,1,1616.199999988079,668694.0999999642,9999,NNB,C,13
11,test,4,0.0,2-Back,1,m,Wed Aug 28 2024 12:30:52 GMT-0500 (Central Daylight Time),671959.7999999523,082_m_m_n_a.png,O,m,610,16,1,1634.8999999761581,670324.8999999762,9999,NNB,C,14
12,test,4,0.0,2-Back,1,m,Wed Aug 28 2024 12:30:52 GMT-0500 (Central Daylight Time),673575.8999999762,093_m_f_n_a.png,O,m,577,17,1,1601.0,671974.8999999762,9999,NNB,C,15
12,test,4,1.0,2-Back,0,z,Wed Aug 28 2024 12:30:52 GMT-0500 (Central Daylight Time),675125.0999999642,082_m_m_n_a.png,O,m,511,18,1,1535.199999988079,673589.8999999762,9999,NNB,C,16
0,test,5,1.0,2-Back,,,Wed Aug 28 2024 12:30:52 GMT-0500 (Central Daylight Time),675125.0999999642,057_y_m_n_a.png,O,space,845,1,1,1535.199999988079,673589.8999999762,9999,NNB,C,0
0,test,5,1.0,2-Back,,,Wed Aug 28 2024 12:30:52 GMT-0500 (Central Daylight Time),675125.0999999642,093_m_f_n_a.png,O,space,845,2,1,1535.199999988079,673589.8999999762,9999,NNB,C,0
1,test,5,1.0,2-Back,1,z,Wed Aug 28 2024 12:30:52 GMT-0500 (Central Daylight Time),683438.6999999881,057_y_m_n_a.png,O,z,1035,3,1,2057.300000011921,681381.3999999762,9999,NNB,C,1
1,test,5,1.0,2-Back,0,z,Wed Aug 28 2024 12:30:52 GMT-0500 (Central Daylight Time),685322.0,093_m_f_n_a.png,O,m,839,4,1,1878.9000000357628,683443.0999999642,9999,NNB,C,2
2,test,5,0.0,2-Back,1,m,Wed Aug 28 2024 12:30:52 GMT-0500 (Central Daylight Time),687404.6999999881,130_o_f_n_a.png,O,m,1046,5,1,2068.300000011921,685336.3999999762,9999,NNB,C,3
3,test,5,0.0,2-Back,1,m,Wed Aug 28 2024 12:30:52 GMT-0500 (Central Daylight Time),689454.0,057_y_m_n_a.png,O,m,1003,6,1,2035.4000000357628,687418.5999999642,9999,NNB,C,4
4,test,5,0.0,2-Back,1,m,Wed Aug 28 2024 12:30:52 GMT-0500 (Central Daylight Time),691236.5999999642,028_y_f_n_a.png,O,m,738,7,1,1765.8999999761581,689470.6999999881,9999,NNB,C,5
4,test,5,0.0,2-Back,0,m,Wed Aug 28 2024 12:30:52 GMT-0500 (Central Daylight Time),693335.8999999762,130_o_f_n_a.png,O,z,1060,8,1,2079.0,691256.8999999762,9999,NNB,C,6
5,test,5,1.0,2-Back,1,z,Wed Aug 28 2024 12:30:52 GMT-0500 (Central Daylight Time),694969.5999999642,028_y_f_n_a.png,O,z,586,9,1,1618.8999999761581,693350.6999999881,9999,NNB,C,7
6,test,5,0.0,2-Back,1,m,Wed Aug 28 2024 12:30:52 GMT-0500 (Central Daylight Time),696834.7999999523,146_o_m_n_a.png,O,m,824,10,1,1850.8999999761581,694983.8999999762,9999,NNB,C,8
7,test,5,0.0,2-Back,1,m,Wed Aug 28 2024 12:30:52 GMT-0500 (Central Daylight Time),698451.0,006_m_f_n_a.png,O,m,573,11,1,1600.4000000357628,696850.5999999642,9999,NNB,C,9
8,test,5,0.0,2-Back,1,m,Wed Aug 28 2024 12:30:52 GMT-0500 (Central Daylight Time),700217.0,092_m_m_n_a.png,O,m,717,12,1,1751.1000000238419,698465.8999999762,9999,NNB,C,10
9,test,5,0.0,2-Back,1,m,Wed Aug 28 2024 12:30:52 GMT-0500 (Central Daylight Time),701866.5999999642,146_o_m_n_a.png,O,m,615,13,1,1634.8999999761581,700231.6999999881,9999,NNB,C,11
10,test,5,1.0,2-Back,1,z,Wed Aug 28 2024 12:30:52 GMT-0500 (Central Daylight Time),703699.0999999642,092_m_m_n_a.png,O,z,798,14,1,1817.8999999761581,701881.1999999881,9999,NNB,C,12
11,test,5,0.0,2-Back,1,m,Wed Aug 28 2024 12:30:52 GMT-0500 (Central Daylight Time),705415.2999999523,098_y_f_n_a.png,O,m,669,15,1,1701.8999999761581,703713.3999999762,9999,NNB,C,13
12,test,5,0.0,2-Back,1,m,Wed Aug 28 2024 12:30:52 GMT-0500 (Central Daylight Time),707064.7999999523,059_o_m_n_a.png,O,m,618,16,1,1635.0999999642372,705429.6999999881,9999,NNB,C,14
13,test,5,0.0,2-Back,1,m,Wed Aug 28 2024 12:30:52 GMT-0500 (Central Daylight Time),709430.6999999881,006_m_f_n_a.png,O,m,1327,17,1,2351.400000035763,707079.2999999523,9999,NNB,C,15
13,test,5,1.0,2-Back,0,z,Wed Aug 28 2024 12:30:52 GMT-0500 (Central Daylight Time),711130.3999999762,059_o_m_n_a.png,O,m,666,18,1,1685.699999988079,709444.6999999881,9999,NNB,C,16
