acc_sum,block,block_c,change,condition,correct,correct_response,datetime,endtime,face,project,response,response_time,row_sel,session_number,start_end,starttime,subject_id,task,task_vers,trial
0,prac,1,,1-Back,,,Thu Sep 05 2024 13:46:14 GMT-0500 (Central Daylight Time),,050_m_f_n_a.png,O,space,8286,1,1,,,7001,NNB,A,0
1,prac,1,0.0,1-Back,1,m,Thu Sep 05 2024 13:46:14 GMT-0500 (Central Daylight Time),130668.20000004768,063_y_f_n_a.png,O,m,875,2,1,1673.8000000715256,128994.39999997616,7001,NNB,A,1
1,prac,1,1.0,1-Back,0,z,Thu Sep 05 2024 13:46:14 GMT-0500 (Central Daylight Time),133484.0,063_y_f_n_a.png,O,None,2010,3,1,2808.6999999284744,130675.30000007153,7001,NNB,A,2
2,prac,1,0.0,1-Back,1,m,Thu Sep 05 2024 13:46:14 GMT-0500 (Central Daylight Time),136266.39999997616,053_o_m_n_a.png,O,m,1977,4,1,2775.0999999046326,133491.30000007153,7001,NNB,A,3
3,prac,1,0.0,1-Back,1,m,Thu Sep 05 2024 13:46:14 GMT-0500 (Central Daylight Time),138815.70000004768,058_m_m_n_a.png,O,m,1739,5,1,2542.100000023842,136273.60000002384,7001,NNB,A,4
4,prac,1,1.0,1-Back,1,z,Thu Sep 05 2024 13:46:14 GMT-0500 (Central Daylight Time),140031.89999997616,058_m_m_n_a.png,O,z,439,6,1,1209.6999999284744,138822.20000004768,7001,NNB,A,5
5,prac,1,0.0,1-Back,1,m,Thu Sep 05 2024 13:46:14 GMT-0500 (Central Daylight Time),141764.60000002384,047_o_f_n_a.png,O,m,902,7,1,1725.8999999761581,140038.70000004768,7001,NNB,A,6
6,prac,1,0.0,1-Back,1,m,Thu Sep 05 2024 13:46:14 GMT-0500 (Central Daylight Time),143680.89999997616,045_m_m_n_a.png,O,m,1107,8,1,1909.3999999761581,141771.5,7001,NNB,A,7
7,prac,1,0.0,1-Back,1,m,Thu Sep 05 2024 13:46:14 GMT-0500 (Central Daylight Time),145327.39999997616,050_m_f_n_a.png,O,m,813,9,1,1639.5,143687.89999997616,7001,NNB,A,8
8,prac,1,1.0,1-Back,1,z,Thu Sep 05 2024 13:46:14 GMT-0500 (Central Daylight Time),146713.30000007153,050_m_f_n_a.png,O,z,607,10,1,1378.3000000715256,145335.0,7001,NNB,A,9
9,prac,1,0.0,1-Back,1,m,Thu Sep 05 2024 13:46:14 GMT-0500 (Central Daylight Time),148096.20000004768,053_o_m_n_a.png,O,m,597,11,1,1375.8000000715256,146720.39999997616,7001,NNB,A,10
10,prac,1,0.0,1-Back,1,m,Thu Sep 05 2024 13:46:14 GMT-0500 (Central Daylight Time),149895.5,010_y_f_n_a.png,O,m,969,12,1,1792.1999999284744,148103.30000007153,7001,NNB,A,11
0,test,1,0.0,1-Back,,,Thu Sep 05 2024 13:46:14 GMT-0500 (Central Daylight Time),149895.5,063_y_f_n_a.png,O,space,10716,1,1,1792.1999999284744,148103.30000007153,7001,NNB,A,0
1,test,1,0.0,1-Back,1,m,Thu Sep 05 2024 13:46:14 GMT-0500 (Central Daylight Time),169789.30000007153,043_m_f_n_a.png,O,m,747,2,1,1826.3000000715256,167963.0,7001,NNB,A,1
2,test,1,0.0,1-Back,1,m,Thu Sep 05 2024 13:46:14 GMT-0500 (Central Daylight Time),171855.5,010_y_f_n_a.png,O,m,1040,3,1,2060.6999999284744,169794.80000007153,7001,NNB,A,2
3,test,1,1.0,1-Back,1,z,Thu Sep 05 2024 13:46:14 GMT-0500 (Central Daylight Time),173622.10000002384,010_y_f_n_a.png,O,z,742,4,1,1760.5,171861.60000002384,7001,NNB,A,3
4,test,1,0.0,1-Back,1,m,Thu Sep 05 2024 13:46:14 GMT-0500 (Central Daylight Time),175237.5,043_m_f_n_a.png,O,m,584,5,1,1608.8999999761581,173628.60000002384,7001,NNB,A,4
5,test,1,0.0,1-Back,1,m,Thu Sep 05 2024 13:46:14 GMT-0500 (Central Daylight Time),176986.89999997616,053_o_m_n_a.png,O,m,720,6,1,1742.8999999761581,175244.0,7001,NNB,A,5
6,test,1,1.0,1-Back,1,z,Thu Sep 05 2024 13:46:14 GMT-0500 (Central Daylight Time),178586.39999997616,053_o_m_n_a.png,O,z,578,7,1,1593.5999999046326,176992.80000007153,7001,NNB,A,6
7,test,1,0.0,1-Back,1,m,Thu Sep 05 2024 13:46:14 GMT-0500 (Central Daylight Time),180452.5,058_m_m_n_a.png,O,m,843,8,1,1860.3999999761581,178592.10000002384,7001,NNB,A,7
8,test,1,0.0,1-Back,1,m,Thu Sep 05 2024 13:46:14 GMT-0500 (Central Daylight Time),182218.60000002384,047_o_f_n_a.png,O,m,745,9,1,1759.8999999761581,180458.70000004768,7001,NNB,A,8
9,test,1,0.0,1-Back,1,m,Thu Sep 05 2024 13:46:14 GMT-0500 (Central Daylight Time),183751.39999997616,058_m_m_n_a.png,O,m,515,10,1,1526.6999999284744,182224.70000004768,7001,NNB,A,9
10,test,1,0.0,1-Back,1,m,Thu Sep 05 2024 13:46:14 GMT-0500 (Central Daylight Time),185317.70000004768,041_y_m_n_a.png,O,m,534,11,1,1560.7000000476837,183757.0,7001,NNB,A,10
11,test,1,1.0,1-Back,1,z,Thu Sep 05 2024 13:46:14 GMT-0500 (Central Daylight Time),186817.10000002384,041_y_m_n_a.png,O,z,480,12,1,1493.2999999523163,185323.80000007153,7001,NNB,A,11
12,test,1,0.0,1-Back,1,m,Thu Sep 05 2024 13:46:14 GMT-0500 (Central Daylight Time),188616.5,044_o_f_n_a.png,O,m,772,13,1,1793.3999999761581,186823.10000002384,7001,NNB,A,12
13,test,1,1.0,1-Back,1,z,Thu Sep 05 2024 13:46:14 GMT-0500 (Central Daylight Time),190132.80000007153,044_o_f_n_a.png,O,z,493,14,1,1510.4000000953674,188622.39999997616,7001,NNB,A,13
14,test,1,0.0,1-Back,1,m,Thu Sep 05 2024 13:46:14 GMT-0500 (Central Daylight Time),191832.20000004768,008_y_m_n_a.png,O,m,680,15,1,1693.8000000715256,190138.39999997616,7001,NNB,A,14
15,test,1,0.0,1-Back,1,m,Thu Sep 05 2024 13:46:14 GMT-0500 (Central Daylight Time),193365.20000004768,050_m_f_n_a.png,O,m,509,16,1,1527.1000000238419,191838.10000002384,7001,NNB,A,15
16,test,1,0.0,1-Back,1,m,Thu Sep 05 2024 13:46:14 GMT-0500 (Central Daylight Time),194914.70000004768,046_o_m_n_a.png,O,m,520,17,1,1543.3000000715256,193371.39999997616,7001,NNB,A,16
17,test,1,0.0,1-Back,1,m,Thu Sep 05 2024 13:46:14 GMT-0500 (Central Daylight Time),196414.20000004768,050_m_f_n_a.png,O,m,467,18,1,1492.8999999761581,194921.30000007153,7001,NNB,A,17
0,test,2,0.0,1-Back,,,Thu Sep 05 2024 13:46:14 GMT-0500 (Central Daylight Time),196414.20000004768,058_m_m_n_a.png,O,space,1511,1,1,1492.8999999761581,194921.30000007153,7001,NNB,A,0
1,test,2,0.0,1-Back,1,m,Thu Sep 05 2024 13:46:14 GMT-0500 (Central Daylight Time),201646.0,043_m_f_n_a.png,O,m,667,2,1,1694.0,199952.0,7001,NNB,A,1
2,test,2,1.0,1-Back,1,z,Thu Sep 05 2024 13:46:14 GMT-0500 (Central Daylight Time),203328.5,043_m_f_n_a.png,O,z,655,3,1,1676.6000000238419,201651.89999997616,7001,NNB,A,2
3,test,2,0.0,1-Back,1,m,Thu Sep 05 2024 13:46:14 GMT-0500 (Central Daylight Time),205144.39999997616,058_m_m_n_a.png,O,m,797,4,1,1809.6999999284744,203334.70000004768,7001,NNB,A,3
4,test,2,0.0,1-Back,1,m,Thu Sep 05 2024 13:46:14 GMT-0500 (Central Daylight Time),206594.10000002384,041_y_m_n_a.png,O,m,421,5,1,1443.1000000238419,205151.0,7001,NNB,A,4
5,test,2,0.0,1-Back,1,m,Thu Sep 05 2024 13:46:14 GMT-0500 (Central Daylight Time),208027.0,063_y_f_n_a.png,O,m,411,6,1,1426.8999999761581,206600.10000002384,7001,NNB,A,5
6,test,2,1.0,1-Back,1,z,Thu Sep 05 2024 13:46:14 GMT-0500 (Central Daylight Time),209493.30000007153,063_y_f_n_a.png,O,z,442,7,1,1460.3000000715256,208033.0,7001,NNB,A,6
7,test,2,0.0,1-Back,1,m,Thu Sep 05 2024 13:46:14 GMT-0500 (Central Daylight Time),211176.30000007153,041_y_m_n_a.png,O,m,662,8,1,1677.2000000476837,209499.10000002384,7001,NNB,A,7
8,test,2,0.0,1-Back,1,m,Thu Sep 05 2024 13:46:14 GMT-0500 (Central Daylight Time),212708.89999997616,044_o_f_n_a.png,O,m,509,9,1,1526.5999999046326,211182.30000007153,7001,NNB,A,8
9,test,2,0.0,1-Back,1,m,Thu Sep 05 2024 13:46:14 GMT-0500 (Central Daylight Time),214275.5,045_m_m_n_a.png,O,m,536,10,1,1560.5,212715.0,7001,NNB,A,9
10,test,2,1.0,1-Back,1,z,Thu Sep 05 2024 13:46:14 GMT-0500 (Central Daylight Time),215708.10000002384,045_m_m_n_a.png,O,z,410,11,1,1426.2999999523163,214281.80000007153,7001,NNB,A,10
11,test,2,0.0,1-Back,1,m,Thu Sep 05 2024 13:46:14 GMT-0500 (Central Daylight Time),217307.5,044_o_f_n_a.png,O,m,569,12,1,1593.2999999523163,215714.20000004768,7001,NNB,A,11
12,test,2,0.0,1-Back,1,m,Thu Sep 05 2024 13:46:14 GMT-0500 (Central Daylight Time),218873.80000007153,047_o_f_n_a.png,O,m,538,13,1,1560.0,217313.80000007153,7001,NNB,A,12
13,test,2,0.0,1-Back,1,m,Thu Sep 05 2024 13:46:14 GMT-0500 (Central Daylight Time),220406.60000002384,053_o_m_n_a.png,O,m,516,14,1,1526.8999999761581,218879.70000004768,7001,NNB,A,13
14,test,2,0.0,1-Back,1,m,Thu Sep 05 2024 13:46:14 GMT-0500 (Central Daylight Time),221939.39999997616,046_o_m_n_a.png,O,m,503,15,1,1526.6999999284744,220412.70000004768,7001,NNB,A,14
15,test,2,1.0,1-Back,1,z,Thu Sep 05 2024 13:46:14 GMT-0500 (Central Daylight Time),223372.20000004768,046_o_m_n_a.png,O,z,410,16,1,1426.7000000476837,221945.5,7001,NNB,A,15
16,test,2,0.0,1-Back,1,m,Thu Sep 05 2024 13:46:14 GMT-0500 (Central Daylight Time),224938.39999997616,008_y_m_n_a.png,O,m,545,17,1,1560.2999999523163,223378.10000002384,7001,NNB,A,16
17,test,2,1.0,1-Back,1,z,Thu Sep 05 2024 13:46:14 GMT-0500 (Central Daylight Time),226521.30000007153,008_y_m_n_a.png,O,z,555,18,1,1576.8000000715256,224944.5,7001,NNB,A,17
0,test,3,1.0,1-Back,,,Thu Sep 05 2024 13:46:14 GMT-0500 (Central Daylight Time),226521.30000007153,010_y_f_n_a.png,O,space,1340,1,1,1576.8000000715256,224944.5,7001,NNB,A,0
1,test,3,0.0,1-Back,1,m,Thu Sep 05 2024 13:46:14 GMT-0500 (Central Daylight Time),231586.60000002384,046_o_m_n_a.png,O,m,620,2,1,1643.6000000238419,229943.0,7001,NNB,A,1
2,test,3,1.0,1-Back,1,z,Thu Sep 05 2024 13:46:14 GMT-0500 (Central Daylight Time),233219.30000007153,046_o_m_n_a.png,O,z,603,3,1,1626.9000000953674,231592.39999997616,7001,NNB,A,2
3,test,3,0.0,1-Back,1,m,Thu Sep 05 2024 13:46:14 GMT-0500 (Central Daylight Time),234818.70000004768,050_m_f_n_a.png,O,m,578,4,1,1593.6000000238419,233225.10000002384,7001,NNB,A,3
4,test,3,1.0,1-Back,1,z,Thu Sep 05 2024 13:46:14 GMT-0500 (Central Daylight Time),236334.70000004768,050_m_f_n_a.png,O,z,499,5,1,1510.3000000715256,234824.39999997616,7001,NNB,A,4
5,test,3,0.0,1-Back,1,m,Thu Sep 05 2024 13:46:14 GMT-0500 (Central Daylight Time),237851.20000004768,044_o_f_n_a.png,O,m,494,6,1,1510.5,236340.70000004768,7001,NNB,A,5
6,test,3,0.0,1-Back,1,m,Thu Sep 05 2024 13:46:14 GMT-0500 (Central Daylight Time),239547.20000004768,041_y_m_n_a.png,O,m,679,7,1,1690.2000000476837,237857.0,7001,NNB,A,6
7,test,3,0.0,1-Back,1,m,Thu Sep 05 2024 13:46:14 GMT-0500 (Central Daylight Time),241466.5,044_o_f_n_a.png,O,m,887,8,1,1913.1999999284744,239553.30000007153,7001,NNB,A,7
8,test,3,0.0,1-Back,1,m,Thu Sep 05 2024 13:46:14 GMT-0500 (Central Daylight Time),242899.39999997616,008_y_m_n_a.png,O,m,403,9,1,1426.6999999284744,241472.70000004768,7001,NNB,A,8
9,test,3,1.0,1-Back,1,z,Thu Sep 05 2024 13:46:14 GMT-0500 (Central Daylight Time),244315.5,008_y_m_n_a.png,O,z,386,10,1,1409.7999999523163,242905.70000004768,7001,NNB,A,9
10,test,3,0.0,1-Back,1,m,Thu Sep 05 2024 13:46:14 GMT-0500 (Central Daylight Time),245882.10000002384,043_m_f_n_a.png,O,m,546,11,1,1560.7000000476837,244321.39999997616,7001,NNB,A,10
11,test,3,0.0,1-Back,1,m,Thu Sep 05 2024 13:46:14 GMT-0500 (Central Daylight Time),248014.60000002384,063_y_f_n_a.png,O,m,1115,12,1,2126.7000000476837,245887.89999997616,7001,NNB,A,11
12,test,3,1.0,1-Back,1,z,Thu Sep 05 2024 13:46:14 GMT-0500 (Central Daylight Time),249614.10000002384,063_y_f_n_a.png,O,z,567,13,1,1593.3999999761581,248020.70000004768,7001,NNB,A,12
13,test,3,0.0,1-Back,1,m,Thu Sep 05 2024 13:46:14 GMT-0500 (Central Daylight Time),251247.0,043_m_f_n_a.png,O,m,607,14,1,1626.6999999284744,249620.30000007153,7001,NNB,A,13
14,test,3,0.0,1-Back,1,m,Thu Sep 05 2024 13:46:14 GMT-0500 (Central Daylight Time),252713.0,058_m_m_n_a.png,O,m,446,15,1,1459.8999999761581,251253.10000002384,7001,NNB,A,14
15,test,3,1.0,1-Back,1,z,Thu Sep 05 2024 13:46:14 GMT-0500 (Central Daylight Time),254112.80000007153,058_m_m_n_a.png,O,z,380,16,1,1394.1000000238419,252718.70000004768,7001,NNB,A,15
16,test,3,0.0,1-Back,1,m,Thu Sep 05 2024 13:46:14 GMT-0500 (Central Daylight Time),255728.70000004768,047_o_f_n_a.png,O,m,597,17,1,1609.6000000238419,254119.10000002384,7001,NNB,A,16
17,test,3,1.0,1-Back,1,z,Thu Sep 05 2024 13:46:14 GMT-0500 (Central Daylight Time),257278.30000007153,047_o_f_n_a.png,O,z,525,18,1,1543.5,255734.80000007153,7001,NNB,A,17
0,test,4,1.0,1-Back,,,Thu Sep 05 2024 13:46:14 GMT-0500 (Central Daylight Time),257278.30000007153,050_m_f_n_a.png,O,space,1535,1,1,1543.5,255734.80000007153,7001,NNB,A,0
1,test,4,0.0,1-Back,1,m,Thu Sep 05 2024 13:46:14 GMT-0500 (Central Daylight Time),262476.7000000477,046_o_m_n_a.png,O,m,609,2,1,1626.8000000715256,260849.89999997616,7001,NNB,A,1
2,test,4,0.0,1-Back,1,m,Thu Sep 05 2024 13:46:14 GMT-0500 (Central Daylight Time),264342.8000000715,050_m_f_n_a.png,O,m,850,3,1,1860.2000000476837,262482.60000002384,7001,NNB,A,2
3,test,4,0.0,1-Back,1,m,Thu Sep 05 2024 13:46:14 GMT-0500 (Central Daylight Time),265893.5,044_o_f_n_a.png,O,m,526,4,1,1544.7999999523163,264348.7000000477,7001,NNB,A,3
4,test,4,1.0,1-Back,1,z,Thu Sep 05 2024 13:46:14 GMT-0500 (Central Daylight Time),267341.8000000715,044_o_f_n_a.png,O,z,426,5,1,1442.2000000476837,265899.60000002384,7001,NNB,A,4
5,test,4,0.0,1-Back,1,m,Thu Sep 05 2024 13:46:14 GMT-0500 (Central Daylight Time),268957.89999997616,063_y_f_n_a.png,O,m,591,6,1,1609.6999999284744,267348.2000000477,7001,NNB,A,5
6,test,4,0.0,1-Back,1,m,Thu Sep 05 2024 13:46:14 GMT-0500 (Central Daylight Time),270407.7000000477,041_y_m_n_a.png,O,m,423,7,1,1443.8000000715256,268963.89999997616,7001,NNB,A,6
7,test,4,1.0,1-Back,1,z,Thu Sep 05 2024 13:46:14 GMT-0500 (Central Daylight Time),271823.8000000715,041_y_m_n_a.png,O,z,398,8,1,1410.4000000953674,270413.39999997616,7001,NNB,A,7
8,test,4,0.0,1-Back,1,m,Thu Sep 05 2024 13:46:14 GMT-0500 (Central Daylight Time),273473.10000002384,063_y_f_n_a.png,O,m,630,9,1,1643.2000000476837,271829.89999997616,7001,NNB,A,8
9,test,4,0.0,1-Back,1,m,Thu Sep 05 2024 13:46:14 GMT-0500 (Central Daylight Time),275022.7000000477,045_m_m_n_a.png,O,m,522,10,1,1543.7000000476837,273479.0,7001,NNB,A,9
10,test,4,1.0,1-Back,1,z,Thu Sep 05 2024 13:46:14 GMT-0500 (Central Daylight Time),276405.7000000477,045_m_m_n_a.png,O,z,350,11,1,1376.5,275029.2000000477,7001,NNB,A,10
11,test,4,0.0,1-Back,1,m,Thu Sep 05 2024 13:46:14 GMT-0500 (Central Daylight Time),277921.89999997616,047_o_f_n_a.png,O,m,488,12,1,1510.5,276411.39999997616,7001,NNB,A,11
12,test,4,0.0,1-Back,1,m,Thu Sep 05 2024 13:46:14 GMT-0500 (Central Daylight Time),279438.10000002384,053_o_m_n_a.png,O,m,491,13,1,1509.8999999761581,277928.2000000477,7001,NNB,A,12
13,test,4,0.0,1-Back,1,m,Thu Sep 05 2024 13:46:14 GMT-0500 (Central Daylight Time),280937.5,047_o_f_n_a.png,O,m,472,14,1,1492.8999999761581,279444.60000002384,7001,NNB,A,13
14,test,4,0.0,1-Back,1,m,Thu Sep 05 2024 13:46:14 GMT-0500 (Central Daylight Time),282521.39999997616,010_y_f_n_a.png,O,m,564,15,1,1577.3999999761581,280944.0,7001,NNB,A,14
15,test,4,1.0,1-Back,1,z,Thu Sep 05 2024 13:46:14 GMT-0500 (Central Daylight Time),283903.10000002384,010_y_f_n_a.png,O,z,357,16,1,1375.5,282527.60000002384,7001,NNB,A,15
16,test,4,0.0,1-Back,1,m,Thu Sep 05 2024 13:46:14 GMT-0500 (Central Daylight Time),285519.3000000715,043_m_f_n_a.png,O,m,590,17,1,1610.1000000238419,283909.2000000477,7001,NNB,A,16
17,test,4,1.0,1-Back,1,z,Thu Sep 05 2024 13:46:14 GMT-0500 (Central Daylight Time),287185.60000002384,043_m_f_n_a.png,O,z,529,18,1,1660.2999999523163,285525.3000000715,7001,NNB,A,17
0,test,5,1.0,1-Back,,,Thu Sep 05 2024 13:46:14 GMT-0500 (Central Daylight Time),287185.60000002384,053_o_m_n_a.png,O,space,963,1,1,1660.2999999523163,285525.3000000715,7001,NNB,A,0
1,test,5,1.0,1-Back,1,z,Thu Sep 05 2024 13:46:14 GMT-0500 (Central Daylight Time),291867.60000002384,053_o_m_n_a.png,O,z,669,2,1,1693.3999999761581,290174.2000000477,7001,NNB,A,1
2,test,5,0.0,1-Back,1,m,Thu Sep 05 2024 13:46:14 GMT-0500 (Central Daylight Time),293533.39999997616,063_y_f_n_a.png,O,m,642,3,1,1659.5999999046326,291873.8000000715,7001,NNB,A,2
3,test,5,0.0,1-Back,1,m,Thu Sep 05 2024 13:46:14 GMT-0500 (Central Daylight Time),295366.5,041_y_m_n_a.png,O,m,816,4,1,1826.6999999284744,293539.8000000715,7001,NNB,A,3
4,test,5,0.0,1-Back,1,m,Thu Sep 05 2024 13:46:14 GMT-0500 (Central Daylight Time),297448.89999997616,063_y_f_n_a.png,O,m,1055,5,1,2075.7999999523163,295373.10000002384,7001,NNB,A,4
5,test,5,0.0,1-Back,1,m,Thu Sep 05 2024 13:46:14 GMT-0500 (Central Daylight Time),298998.5,058_m_m_n_a.png,O,m,524,6,1,1543.5,297455.0,7001,NNB,A,5
6,test,5,1.0,1-Back,1,z,Thu Sep 05 2024 13:46:14 GMT-0500 (Central Daylight Time),300414.60000002384,058_m_m_n_a.png,O,z,399,7,1,1410.0,299004.60000002384,7001,NNB,A,6
7,test,5,0.0,1-Back,1,m,Thu Sep 05 2024 13:46:14 GMT-0500 (Central Daylight Time),301897.7000000477,010_y_f_n_a.png,O,m,463,8,1,1477.6000000238419,300420.10000002384,7001,NNB,A,7
8,test,5,0.0,1-Back,1,m,Thu Sep 05 2024 13:46:14 GMT-0500 (Central Daylight Time),303547.10000002384,008_y_m_n_a.png,O,m,628,9,1,1643.6000000238419,301903.5,7001,NNB,A,8
9,test,5,0.0,1-Back,1,m,Thu Sep 05 2024 13:46:14 GMT-0500 (Central Daylight Time),305496.5,010_y_f_n_a.png,O,m,922,10,1,1943.2999999523163,303553.2000000477,7001,NNB,A,9
10,test,5,0.0,1-Back,1,m,Thu Sep 05 2024 13:46:14 GMT-0500 (Central Daylight Time),307096.10000002384,047_o_f_n_a.png,O,m,573,11,1,1593.3999999761581,305502.7000000477,7001,NNB,A,10
11,test,5,1.0,1-Back,1,z,Thu Sep 05 2024 13:46:14 GMT-0500 (Central Daylight Time),308495.7000000477,047_o_f_n_a.png,O,z,373,12,1,1393.5,307102.2000000477,7001,NNB,A,11
12,test,5,0.0,1-Back,1,m,Thu Sep 05 2024 13:46:14 GMT-0500 (Central Daylight Time),310028.39999997616,046_o_m_n_a.png,O,m,510,13,1,1526.5999999046326,308501.8000000715,7001,NNB,A,12
13,test,5,0.0,1-Back,1,m,Thu Sep 05 2024 13:46:14 GMT-0500 (Central Daylight Time),311511.0,050_m_f_n_a.png,O,m,465,14,1,1476.3999999761581,310034.60000002384,7001,NNB,A,13
14,test,5,1.0,1-Back,1,z,Thu Sep 05 2024 13:46:14 GMT-0500 (Central Daylight Time),312960.89999997616,050_m_f_n_a.png,O,z,422,15,1,1444.2999999523163,311516.60000002384,7001,NNB,A,14
15,test,5,0.0,1-Back,1,m,Thu Sep 05 2024 13:46:14 GMT-0500 (Central Daylight Time),314477.0,046_o_m_n_a.png,O,m,484,16,1,1509.6999999284744,312967.3000000715,7001,NNB,A,15
16,test,5,0.0,1-Back,1,m,Thu Sep 05 2024 13:46:14 GMT-0500 (Central Daylight Time),315926.7000000477,043_m_f_n_a.png,O,m,417,17,1,1443.7000000476837,314483.0,7001,NNB,A,16
17,test,5,0.0,1-Back,1,m,Thu Sep 05 2024 13:46:14 GMT-0500 (Central Daylight Time),317426.10000002384,045_m_m_n_a.png,O,m,479,18,1,1493.1000000238419,315933.0,7001,NNB,A,17
0,prac,1,0.0,2-Back,,,Thu Sep 05 2024 13:46:14 GMT-0500 (Central Daylight Time),317426.10000002384,008_y_m_n_a.png,O,space,9680,1,1,1493.1000000238419,315933.0,7001,NNB,A,0
0,prac,1,0.0,2-Back,,,Thu Sep 05 2024 13:46:14 GMT-0500 (Central Daylight Time),317426.10000002384,043_m_f_n_a.png,O,space,9680,2,1,1493.1000000238419,315933.0,7001,NNB,A,0
1,prac,1,1.0,2-Back,1,m,Thu Sep 05 2024 13:46:14 GMT-0500 (Central Daylight Time),430624.0,046_o_m_n_a.png,O,m,1415,3,1,2208.5,428415.5,7001,NNB,A,1
2,prac,1,0.0,2-Back,1,m,Thu Sep 05 2024 13:46:14 GMT-0500 (Central Daylight Time),432590.0,047_o_f_n_a.png,O,m,1134,4,1,1958.7999999523163,430631.2000000477,7001,NNB,A,2
3,prac,1,0.0,2-Back,1,z,Thu Sep 05 2024 13:46:14 GMT-0500 (Central Daylight Time),434556.0,046_o_m_n_a.png,O,z,1176,5,1,1958.1999999284744,432597.8000000715,7001,NNB,A,3
4,prac,1,1.0,2-Back,1,z,Thu Sep 05 2024 13:46:14 GMT-0500 (Central Daylight Time),436388.7000000477,047_o_f_n_a.png,O,z,1050,6,1,1825.3999999761581,434563.3000000715,7001,NNB,A,4
5,prac,1,0.0,2-Back,1,m,Thu Sep 05 2024 13:46:14 GMT-0500 (Central Daylight Time),438738.0,045_m_m_n_a.png,O,m,1539,7,1,2342.100000023842,436395.89999997616,7001,NNB,A,5
6,prac,1,0.0,2-Back,1,m,Thu Sep 05 2024 13:46:14 GMT-0500 (Central Daylight Time),440487.3000000715,053_o_m_n_a.png,O,m,931,8,1,1742.1000000238419,438745.2000000477,7001,NNB,A,6
7,prac,1,0.0,2-Back,1,m,Thu Sep 05 2024 13:46:14 GMT-0500 (Central Daylight Time),442087.0,010_y_f_n_a.png,O,m,770,9,1,1592.1000000238419,440494.89999997616,7001,NNB,A,7
8,prac,1,1.0,2-Back,1,z,Thu Sep 05 2024 13:46:14 GMT-0500 (Central Daylight Time),443836.3000000715,053_o_m_n_a.png,O,z,967,10,1,1742.0,442094.3000000715,7001,NNB,A,8
9,prac,1,0.0,2-Back,1,m,Thu Sep 05 2024 13:46:14 GMT-0500 (Central Daylight Time),446452.10000002384,063_y_f_n_a.png,O,m,1801,11,1,2607.2999999523163,443844.8000000715,7001,NNB,A,9
10,prac,1,0.0,2-Back,1,m,Thu Sep 05 2024 13:46:14 GMT-0500 (Central Daylight Time),448285.0,045_m_m_n_a.png,O,m,1051,12,1,1825.8999999761581,446459.10000002384,7001,NNB,A,10
0,test,1,0.0,2-Back,,,Thu Sep 05 2024 13:46:14 GMT-0500 (Central Daylight Time),448285.0,041_y_m_n_a.png,O,space,7717,1,1,1825.8999999761581,446459.10000002384,7001,NNB,A,0
0,test,1,0.0,2-Back,,,Thu Sep 05 2024 13:46:14 GMT-0500 (Central Daylight Time),448285.0,041_y_m_n_a.png,O,space,7717,2,1,1825.8999999761581,446459.10000002384,7001,NNB,A,0
1,test,1,0.0,2-Back,1,m,Thu Sep 05 2024 13:46:14 GMT-0500 (Central Daylight Time),472993.8000000715,047_o_f_n_a.png,O,m,921,3,1,1942.7000000476837,471051.10000002384,7001,NNB,A,1
2,test,1,0.0,2-Back,1,m,Thu Sep 05 2024 13:46:14 GMT-0500 (Central Daylight Time),474744.39999997616,058_m_m_n_a.png,O,m,732,4,1,1744.5999999046326,472999.8000000715,7001,NNB,A,2
3,test,1,1.0,2-Back,1,z,Thu Sep 05 2024 13:46:14 GMT-0500 (Central Daylight Time),476726.0,047_o_f_n_a.png,O,z,950,5,1,1975.7999999523163,474750.2000000477,7001,NNB,A,3
4,test,1,0.0,2-Back,1,m,Thu Sep 05 2024 13:46:14 GMT-0500 (Central Daylight Time),478608.7000000477,063_y_f_n_a.png,O,m,856,6,1,1876.6000000238419,476732.10000002384,7001,NNB,A,4
4,test,1,0.0,2-Back,0,m,Thu Sep 05 2024 13:46:14 GMT-0500 (Central Daylight Time),480858.10000002384,058_m_m_n_a.png,O,z,1221,7,1,2243.2999999523163,478614.8000000715,7001,NNB,A,5
5,test,1,1.0,2-Back,1,z,Thu Sep 05 2024 13:46:14 GMT-0500 (Central Daylight Time),482740.60000002384,063_y_f_n_a.png,O,z,859,8,1,1876.5,480864.10000002384,7001,NNB,A,6
6,test,1,0.0,2-Back,1,m,Thu Sep 05 2024 13:46:14 GMT-0500 (Central Daylight Time),484423.5,008_y_m_n_a.png,O,m,665,9,1,1676.7999999523163,482746.7000000477,7001,NNB,A,7
7,test,1,0.0,2-Back,1,m,Thu Sep 05 2024 13:46:14 GMT-0500 (Central Daylight Time),486439.60000002384,044_o_f_n_a.png,O,m,990,10,1,2010.2000000476837,484429.39999997616,7001,NNB,A,8
8,test,1,1.0,2-Back,1,z,Thu Sep 05 2024 13:46:14 GMT-0500 (Central Daylight Time),488105.7000000477,008_y_m_n_a.png,O,z,638,11,1,1660.0,486445.7000000477,7001,NNB,A,9
9,test,1,0.0,2-Back,1,m,Thu Sep 05 2024 13:46:14 GMT-0500 (Central Daylight Time),490006.3000000715,043_m_f_n_a.png,O,m,883,12,1,1894.2000000476837,488112.10000002384,7001,NNB,A,10
10,test,1,0.0,2-Back,1,m,Thu Sep 05 2024 13:46:14 GMT-0500 (Central Daylight Time),492654.3000000715,043_m_f_n_a.png,O,m,1617,13,1,2642.3000000715256,490012.0,7001,NNB,A,11
11,test,1,0.0,2-Back,1,m,Thu Sep 05 2024 13:46:14 GMT-0500 (Central Daylight Time),494503.60000002384,046_o_m_n_a.png,O,m,831,14,1,1842.7999999523163,492660.8000000715,7001,NNB,A,12
12,test,1,0.0,2-Back,1,m,Thu Sep 05 2024 13:46:14 GMT-0500 (Central Daylight Time),496403.0,044_o_f_n_a.png,O,m,878,15,1,1893.6000000238419,494509.39999997616,7001,NNB,A,13
13,test,1,1.0,2-Back,1,z,Thu Sep 05 2024 13:46:14 GMT-0500 (Central Daylight Time),498152.5,046_o_m_n_a.png,O,z,731,16,1,1743.0,496409.5,7001,NNB,A,14
14,test,1,0.0,2-Back,1,m,Thu Sep 05 2024 13:46:14 GMT-0500 (Central Daylight Time),500585.10000002384,050_m_f_n_a.png,O,m,1405,17,1,2426.399999976158,498158.7000000477,7001,NNB,A,15
15,test,1,0.0,2-Back,1,m,Thu Sep 05 2024 13:46:14 GMT-0500 (Central Daylight Time),502384.60000002384,045_m_m_n_a.png,O,m,780,18,1,1793.2000000476837,500591.39999997616,7001,NNB,A,16
0,test,2,0.0,2-Back,,,Thu Sep 05 2024 13:46:14 GMT-0500 (Central Daylight Time),502384.60000002384,045_m_m_n_a.png,O,space,1108,1,1,1793.2000000476837,500591.39999997616,7001,NNB,A,0
0,test,2,0.0,2-Back,,,Thu Sep 05 2024 13:46:14 GMT-0500 (Central Daylight Time),502384.60000002384,010_y_f_n_a.png,O,space,1108,2,1,1793.2000000476837,500591.39999997616,7001,NNB,A,0
1,test,2,1.0,2-Back,1,z,Thu Sep 05 2024 13:46:14 GMT-0500 (Central Daylight Time),510065.5,045_m_m_n_a.png,O,z,438,3,1,1460.6999999284744,508604.8000000715,7001,NNB,A,1
2,test,2,0.0,2-Back,1,m,Thu Sep 05 2024 13:46:14 GMT-0500 (Central Daylight Time),512464.8000000715,050_m_f_n_a.png,O,m,1372,4,1,2393.5,510071.3000000715,7001,NNB,A,2
3,test,2,0.0,2-Back,1,m,Thu Sep 05 2024 13:46:14 GMT-0500 (Central Daylight Time),514330.8000000715,010_y_f_n_a.png,O,m,845,5,1,1860.0,512470.8000000715,7001,NNB,A,3
4,test,2,0.0,2-Back,1,m,Thu Sep 05 2024 13:46:14 GMT-0500 (Central Daylight Time),516096.89999997616,046_o_m_n_a.png,O,m,739,6,1,1760.2999999523163,514336.60000002384,7001,NNB,A,4
4,test,2,0.0,2-Back,0,m,Thu Sep 05 2024 13:46:14 GMT-0500 (Central Daylight Time),518113.0,063_y_f_n_a.png,O,z,988,7,1,2010.0,516103.0,7001,NNB,A,5
5,test,2,1.0,2-Back,1,z,Thu Sep 05 2024 13:46:14 GMT-0500 (Central Daylight Time),519845.60000002384,046_o_m_n_a.png,O,z,708,8,1,1726.0,518119.60000002384,7001,NNB,A,6
6,test,2,0.0,2-Back,1,m,Thu Sep 05 2024 13:46:14 GMT-0500 (Central Daylight Time),522322.2000000477,008_y_m_n_a.png,O,m,1460,9,1,2471.0,519851.2000000477,7001,NNB,A,7
7,test,2,0.0,2-Back,1,m,Thu Sep 05 2024 13:46:14 GMT-0500 (Central Daylight Time),524810.8000000715,008_y_m_n_a.png,O,m,1461,10,1,2481.0,522329.8000000715,7001,NNB,A,8
7,test,2,0.0,2-Back,0,m,Thu Sep 05 2024 13:46:14 GMT-0500 (Central Daylight Time),526677.1000000238,043_m_f_n_a.png,O,z,842,11,1,1859.7999999523163,524817.3000000715,7001,NNB,A,9
8,test,2,0.0,2-Back,1,m,Thu Sep 05 2024 13:46:14 GMT-0500 (Central Daylight Time),528859.5,010_y_f_n_a.png,O,m,1160,12,1,2175.7999999523163,526683.7000000477,7001,NNB,A,10
9,test,2,1.0,2-Back,1,z,Thu Sep 05 2024 13:46:14 GMT-0500 (Central Daylight Time),530643.6000000238,043_m_f_n_a.png,O,z,754,13,1,1777.8999999761581,528865.7000000477,7001,NNB,A,11
10,test,2,0.0,2-Back,1,m,Thu Sep 05 2024 13:46:14 GMT-0500 (Central Daylight Time),532491.7000000477,053_o_m_n_a.png,O,m,827,14,1,1841.7000000476837,530650.0,7001,NNB,A,12
11,test,2,0.0,2-Back,1,m,Thu Sep 05 2024 13:46:14 GMT-0500 (Central Daylight Time),534457.7000000477,053_o_m_n_a.png,O,m,937,15,1,1959.8000000715256,532497.8999999762,7001,NNB,A,13
12,test,2,0.0,2-Back,1,m,Thu Sep 05 2024 13:46:14 GMT-0500 (Central Daylight Time),536440.5,044_o_f_n_a.png,O,m,964,16,1,1976.5,534464.0,7001,NNB,A,14
13,test,2,0.0,2-Back,1,m,Thu Sep 05 2024 13:46:14 GMT-0500 (Central Daylight Time),538023.3000000715,058_m_m_n_a.png,O,m,556,17,1,1576.7000000476837,536446.6000000238,7001,NNB,A,15
14,test,2,1.0,2-Back,1,z,Thu Sep 05 2024 13:46:14 GMT-0500 (Central Daylight Time),539689.3999999762,044_o_f_n_a.png,O,z,646,18,1,1659.8999999761581,538029.5,7001,NNB,A,16
0,test,3,1.0,2-Back,,,Thu Sep 05 2024 13:46:14 GMT-0500 (Central Daylight Time),539689.3999999762,041_y_m_n_a.png,O,space,1044,1,1,1659.8999999761581,538029.5,7001,NNB,A,0
0,test,3,1.0,2-Back,,,Thu Sep 05 2024 13:46:14 GMT-0500 (Central Daylight Time),539689.3999999762,041_y_m_n_a.png,O,space,1044,2,1,1659.8999999761581,538029.5,7001,NNB,A,0
1,test,3,0.0,2-Back,1,m,Thu Sep 05 2024 13:46:14 GMT-0500 (Central Daylight Time),547586.8000000715,044_o_f_n_a.png,O,m,644,3,1,1665.7000000476837,545921.1000000238,7001,NNB,A,1
2,test,3,0.0,2-Back,1,m,Thu Sep 05 2024 13:46:14 GMT-0500 (Central Daylight Time),549369.7000000477,045_m_m_n_a.png,O,m,754,4,1,1776.5,547593.2000000477,7001,NNB,A,2
3,test,3,1.0,2-Back,1,z,Thu Sep 05 2024 13:46:14 GMT-0500 (Central Daylight Time),550870.5,044_o_f_n_a.png,O,z,468,5,1,1494.3999999761581,549376.1000000238,7001,NNB,A,3
4,test,3,0.0,2-Back,1,m,Thu Sep 05 2024 13:46:14 GMT-0500 (Central Daylight Time),552602.1000000238,008_y_m_n_a.png,O,m,704,6,1,1725.2000000476837,550876.8999999762,7001,NNB,A,4
4,test,3,0.0,2-Back,0,m,Thu Sep 05 2024 13:46:14 GMT-0500 (Central Daylight Time),554518.2000000477,045_m_m_n_a.png,O,z,884,7,1,1909.7000000476837,552608.5,7001,NNB,A,5
5,test,3,1.0,2-Back,1,z,Thu Sep 05 2024 13:46:14 GMT-0500 (Central Daylight Time),556784.2000000477,008_y_m_n_a.png,O,z,1239,8,1,2260.100000023842,554524.1000000238,7001,NNB,A,6
6,test,3,0.0,2-Back,1,m,Thu Sep 05 2024 13:46:14 GMT-0500 (Central Daylight Time),558383.6000000238,010_y_f_n_a.png,O,m,581,9,1,1593.0,556790.6000000238,7001,NNB,A,7
7,test,3,0.0,2-Back,1,m,Thu Sep 05 2024 13:46:14 GMT-0500 (Central Daylight Time),560083.1000000238,058_m_m_n_a.png,O,m,670,10,1,1693.2999999523163,558389.8000000715,7001,NNB,A,8
8,test,3,1.0,2-Back,1,z,Thu Sep 05 2024 13:46:14 GMT-0500 (Central Daylight Time),561699.1000000238,010_y_f_n_a.png,O,z,586,11,1,1609.7000000476837,560089.3999999762,7001,NNB,A,9
9,test,3,1.0,2-Back,1,z,Thu Sep 05 2024 13:46:14 GMT-0500 (Central Daylight Time),563398.7000000477,058_m_m_n_a.png,O,z,667,12,1,1693.2000000476837,561705.5,7001,NNB,A,10
10,test,3,0.0,2-Back,1,m,Thu Sep 05 2024 13:46:14 GMT-0500 (Central Daylight Time),565348.2000000477,044_o_f_n_a.png,O,m,919,13,1,1943.3000000715256,563404.8999999762,7001,NNB,A,11
11,test,3,0.0,2-Back,1,m,Thu Sep 05 2024 13:46:14 GMT-0500 (Central Daylight Time),567664.0,050_m_f_n_a.png,O,m,1297,14,1,2309.5,565354.5,7001,NNB,A,12
12,test,3,0.0,2-Back,1,m,Thu Sep 05 2024 13:46:14 GMT-0500 (Central Daylight Time),569446.5,046_o_m_n_a.png,O,m,761,15,1,1776.3999999761581,567670.1000000238,7001,NNB,A,13
13,test,3,1.0,2-Back,1,z,Thu Sep 05 2024 13:46:14 GMT-0500 (Central Daylight Time),571146.2000000477,050_m_f_n_a.png,O,z,670,16,1,1690.8999999761581,569455.3000000715,7001,NNB,A,14
14,test,3,0.0,2-Back,1,m,Thu Sep 05 2024 13:46:14 GMT-0500 (Central Daylight Time),572812.3999999762,047_o_f_n_a.png,O,m,643,17,1,1659.7999999523163,571152.6000000238,7001,NNB,A,15
15,test,3,0.0,2-Back,1,m,Thu Sep 05 2024 13:46:14 GMT-0500 (Central Daylight Time),575161.5,047_o_f_n_a.png,O,m,1329,18,1,2343.0,572818.5,7001,NNB,A,16
0,test,4,0.0,2-Back,,,Thu Sep 05 2024 13:46:14 GMT-0500 (Central Daylight Time),575161.5,053_o_m_n_a.png,O,space,939,1,1,2343.0,572818.5,7001,NNB,A,0
0,test,4,0.0,2-Back,,,Thu Sep 05 2024 13:46:14 GMT-0500 (Central Daylight Time),575161.5,063_y_f_n_a.png,O,space,939,2,1,2343.0,572818.5,7001,NNB,A,0
1,test,4,1.0,2-Back,1,z,Thu Sep 05 2024 13:46:14 GMT-0500 (Central Daylight Time),582675.8999999762,053_o_m_n_a.png,O,z,443,3,1,1459.7999999523163,581216.1000000238,7001,NNB,A,1
2,test,4,1.0,2-Back,1,z,Thu Sep 05 2024 13:46:14 GMT-0500 (Central Daylight Time),584408.8000000715,063_y_f_n_a.png,O,z,714,4,1,1727.1000000238419,582681.7000000477,7001,NNB,A,2
3,test,4,0.0,2-Back,1,m,Thu Sep 05 2024 13:46:14 GMT-0500 (Central Daylight Time),586191.5,044_o_f_n_a.png,O,m,764,5,1,1776.3999999761581,584415.1000000238,7001,NNB,A,3
3,test,4,0.0,2-Back,0,m,Thu Sep 05 2024 13:46:14 GMT-0500 (Central Daylight Time),587957.7000000477,044_o_f_n_a.png,O,z,734,6,1,1759.8999999761581,586197.8000000715,7001,NNB,A,4
4,test,4,0.0,2-Back,1,m,Thu Sep 05 2024 13:46:14 GMT-0500 (Central Daylight Time),589823.7000000477,043_m_f_n_a.png,O,m,848,7,1,1859.6000000238419,587964.1000000238,7001,NNB,A,5
5,test,4,0.0,2-Back,1,m,Thu Sep 05 2024 13:46:14 GMT-0500 (Central Daylight Time),591556.3999999762,008_y_m_n_a.png,O,m,710,8,1,1726.5,589829.8999999762,7001,NNB,A,6
6,test,4,1.0,2-Back,1,z,Thu Sep 05 2024 13:46:14 GMT-0500 (Central Daylight Time),593015.5,043_m_f_n_a.png,O,z,442,9,1,1452.6999999284744,591562.8000000715,7001,NNB,A,7
7,test,4,0.0,2-Back,1,m,Thu Sep 05 2024 13:46:14 GMT-0500 (Central Daylight Time),594738.8000000715,058_m_m_n_a.png,O,m,687,10,1,1713.9000000953674,593024.8999999762,7001,NNB,A,8
7,test,4,0.0,2-Back,0,m,Thu Sep 05 2024 13:46:14 GMT-0500 (Central Daylight Time),596221.6000000238,008_y_m_n_a.png,O,z,459,11,1,1476.6000000238419,594745.0,7001,NNB,A,9
8,test,4,0.0,2-Back,1,m,Thu Sep 05 2024 13:46:14 GMT-0500 (Central Daylight Time),597921.3000000715,047_o_f_n_a.png,O,m,680,12,1,1693.4000000953674,596227.8999999762,7001,NNB,A,10
9,test,4,0.0,2-Back,1,m,Thu Sep 05 2024 13:46:14 GMT-0500 (Central Daylight Time),599853.8999999762,041_y_m_n_a.png,O,m,900,13,1,1926.0,597927.8999999762,7001,NNB,A,11
10,test,4,1.0,2-Back,1,z,Thu Sep 05 2024 13:46:14 GMT-0500 (Central Daylight Time),601420.1000000238,047_o_f_n_a.png,O,z,543,14,1,1559.7999999523163,599860.3000000715,7001,NNB,A,12
11,test,4,1.0,2-Back,1,z,Thu Sep 05 2024 13:46:14 GMT-0500 (Central Daylight Time),603136.3000000715,041_y_m_n_a.png,O,z,697,15,1,1710.1000000238419,601426.2000000477,7001,NNB,A,13
12,test,4,0.0,2-Back,1,m,Thu Sep 05 2024 13:46:14 GMT-0500 (Central Daylight Time),605002.3000000715,045_m_m_n_a.png,O,m,837,16,1,1859.7000000476837,603142.6000000238,7001,NNB,A,14
13,test,4,0.0,2-Back,1,m,Thu Sep 05 2024 13:46:14 GMT-0500 (Central Daylight Time),607534.8000000715,050_m_f_n_a.png,O,m,1500,17,1,2526.5,605008.3000000715,7001,NNB,A,15
14,test,4,1.0,2-Back,1,z,Thu Sep 05 2024 13:46:14 GMT-0500 (Central Daylight Time),609067.6000000238,045_m_m_n_a.png,O,z,502,18,1,1526.3999999761581,607541.2000000477,7001,NNB,A,16
0,test,5,1.0,2-Back,,,Thu Sep 05 2024 13:46:14 GMT-0500 (Central Daylight Time),609067.6000000238,041_y_m_n_a.png,O,space,913,1,1,1526.3999999761581,607541.2000000477,7001,NNB,A,0
0,test,5,1.0,2-Back,,,Thu Sep 05 2024 13:46:14 GMT-0500 (Central Daylight Time),609067.6000000238,050_m_f_n_a.png,O,space,913,2,1,1526.3999999761581,607541.2000000477,7001,NNB,A,0
1,test,5,1.0,2-Back,1,z,Thu Sep 05 2024 13:46:14 GMT-0500 (Central Daylight Time),616559.8000000715,041_y_m_n_a.png,O,z,511,3,1,1521.2000000476837,615038.6000000238,7001,NNB,A,1
2,test,5,1.0,2-Back,1,z,Thu Sep 05 2024 13:46:14 GMT-0500 (Central Daylight Time),618114.7000000477,050_m_f_n_a.png,O,z,528,4,1,1548.3000000715256,616566.3999999762,7001,NNB,A,2
3,test,5,0.0,2-Back,1,m,Thu Sep 05 2024 13:46:14 GMT-0500 (Central Daylight Time),619830.7000000477,047_o_f_n_a.png,O,m,698,5,1,1709.2000000476837,618121.5,7001,NNB,A,3
4,test,5,0.0,2-Back,1,m,Thu Sep 05 2024 13:46:14 GMT-0500 (Central Daylight Time),622346.8000000715,041_y_m_n_a.png,O,m,1494,6,1,2509.600000023842,619837.2000000477,7001,NNB,A,4
5,test,5,0.0,2-Back,1,m,Thu Sep 05 2024 13:46:14 GMT-0500 (Central Daylight Time),623979.5,010_y_f_n_a.png,O,m,611,7,1,1626.7999999523163,622352.7000000477,7001,NNB,A,5
5,test,5,0.0,2-Back,0,m,Thu Sep 05 2024 13:46:14 GMT-0500 (Central Daylight Time),626012.3999999762,047_o_f_n_a.png,O,z,1010,8,1,2026.6999999284744,623985.7000000477,7001,NNB,A,6
6,test,5,1.0,2-Back,1,z,Thu Sep 05 2024 13:46:14 GMT-0500 (Central Daylight Time),627761.8999999762,010_y_f_n_a.png,O,z,721,9,1,1743.8999999761581,626018.0,7001,NNB,A,7
7,test,5,0.0,2-Back,1,m,Thu Sep 05 2024 13:46:14 GMT-0500 (Central Daylight Time),629561.1000000238,046_o_m_n_a.png,O,m,772,10,1,1792.7000000476837,627768.3999999762,7001,NNB,A,8
8,test,5,0.0,2-Back,1,m,Thu Sep 05 2024 13:46:14 GMT-0500 (Central Daylight Time),631227.3000000715,043_m_f_n_a.png,O,m,644,11,1,1660.2000000476837,629567.1000000238,7001,NNB,A,9
9,test,5,0.0,2-Back,1,m,Thu Sep 05 2024 13:46:14 GMT-0500 (Central Daylight Time),633310.1000000238,058_m_m_n_a.png,O,m,1058,12,1,2076.2000000476837,631233.8999999762,7001,NNB,A,10
10,test,5,0.0,2-Back,1,m,Thu Sep 05 2024 13:46:14 GMT-0500 (Central Daylight Time),635942.6000000238,046_o_m_n_a.png,O,m,1601,13,1,2626.399999976158,633316.2000000477,7001,NNB,A,11
11,test,5,1.0,2-Back,1,z,Thu Sep 05 2024 13:46:14 GMT-0500 (Central Daylight Time),637559.0,058_m_m_n_a.png,O,z,584,14,1,1610.3999999761581,635948.6000000238,7001,NNB,A,12
12,test,5,0.0,2-Back,1,m,Thu Sep 05 2024 13:46:14 GMT-0500 (Central Daylight Time),639358.3000000715,063_y_f_n_a.png,O,m,775,15,1,1792.9000000953674,637565.3999999762,7001,NNB,A,13
13,test,5,0.0,2-Back,1,m,Thu Sep 05 2024 13:46:14 GMT-0500 (Central Daylight Time),641207.5,053_o_m_n_a.png,O,m,831,16,1,1842.6999999284744,639364.8000000715,7001,NNB,A,14
13,test,5,0.0,2-Back,0,m,Thu Sep 05 2024 13:46:14 GMT-0500 (Central Daylight Time),643491.2000000477,043_m_f_n_a.png,O,z,1262,17,1,2277.5,641213.7000000477,7001,NNB,A,15
14,test,5,1.0,2-Back,1,z,Thu Sep 05 2024 13:46:14 GMT-0500 (Central Daylight Time),645339.6000000238,053_o_m_n_a.png,O,z,827,18,1,1842.1000000238419,643497.5,7001,NNB,A,16
