acc_sum,block,block_c,change,condition,correct,correct_response,datetime,endtime,face,project,response,response_time,row_sel,session_number,start_end,starttime,subject_id,task,task_vers,trial
0,prac,1,,1-Back,,,Wed Oct 30 2024 13:26:10 GMT-0500 (Central Daylight Time),,050_m_f_n_a.png,I,space,12763,1,1,,,8005,NNB,A,0
1,prac,1,0.0,1-Back,1,m,Wed Oct 30 2024 13:26:10 GMT-0500 (Central Daylight Time),125694.80000000447,063_y_f_n_a.png,I,m,920,2,1,1724.5,123970.30000000447,8005,NNB,A,1
2,prac,1,1.0,1-Back,1,z,Wed Oct 30 2024 13:26:10 GMT-0500 (Central Daylight Time),127327.0,063_y_f_n_a.png,I,z,843,3,1,1624.6999999955297,125702.30000000447,8005,NNB,A,2
3,prac,1,0.0,1-Back,1,m,Wed Oct 30 2024 13:26:10 GMT-0500 (Central Daylight Time),128677.10000000149,053_o_m_n_a.png,I,m,546,4,1,1342.7999999970198,127334.30000000447,8005,NNB,A,3
4,prac,1,0.0,1-Back,1,m,Wed Oct 30 2024 13:26:10 GMT-0500 (Central Daylight Time),130059.70000000298,058_m_m_n_a.png,I,m,580,5,1,1375.6000000014901,128684.10000000149,8005,NNB,A,4
5,prac,1,1.0,1-Back,1,z,Wed Oct 30 2024 13:26:10 GMT-0500 (Central Daylight Time),131242.8999999985,058_m_m_n_a.png,I,z,407,6,1,1175.8999999985099,130067.0,8005,NNB,A,5
6,prac,1,0.0,1-Back,1,m,Wed Oct 30 2024 13:26:10 GMT-0500 (Central Daylight Time),132959.0,047_o_f_n_a.png,I,m,881,7,1,1709.1999999955297,131249.80000000447,8005,NNB,A,6
7,prac,1,0.0,1-Back,1,m,Wed Oct 30 2024 13:26:10 GMT-0500 (Central Daylight Time),134275.20000000298,045_m_m_n_a.png,I,m,509,8,1,1309.5,132965.70000000298,8005,NNB,A,7
8,prac,1,0.0,1-Back,1,m,Wed Oct 30 2024 13:26:10 GMT-0500 (Central Daylight Time),135591.70000000298,050_m_f_n_a.png,I,m,502,9,1,1309.8999999985099,134281.80000000447,8005,NNB,A,8
9,prac,1,1.0,1-Back,1,z,Wed Oct 30 2024 13:26:10 GMT-0500 (Central Daylight Time),136941.1000000015,050_m_f_n_a.png,I,z,563,10,1,1342.6000000014901,135598.5,8005,NNB,A,9
10,prac,1,0.0,1-Back,1,m,Wed Oct 30 2024 13:26:10 GMT-0500 (Central Daylight Time),138524.1000000015,053_o_m_n_a.png,I,m,806,11,1,1576.0,136948.1000000015,8005,NNB,A,10
11,prac,1,0.0,1-Back,1,m,Wed Oct 30 2024 13:26:10 GMT-0500 (Central Daylight Time),139790.30000000447,010_y_f_n_a.png,I,m,425,12,1,1259.0,138531.30000000447,8005,NNB,A,11
0,test,1,0.0,1-Back,,,Wed Oct 30 2024 13:26:10 GMT-0500 (Central Daylight Time),139790.30000000447,063_y_f_n_a.png,I,space,10055,1,1,1259.0,138531.30000000447,8005,NNB,A,0
1,test,1,0.0,1-Back,1,m,Wed Oct 30 2024 13:26:10 GMT-0500 (Central Daylight Time),159567.30000000447,043_m_f_n_a.png,I,m,728,2,1,1743.3000000044703,157824.0,8005,NNB,A,1
2,test,1,0.0,1-Back,1,m,Wed Oct 30 2024 13:26:10 GMT-0500 (Central Daylight Time),161250.30000000447,010_y_f_n_a.png,I,m,666,3,1,1677.4000000059605,159572.8999999985,8005,NNB,A,2
3,test,1,1.0,1-Back,1,z,Wed Oct 30 2024 13:26:10 GMT-0500 (Central Daylight Time),162699.6000000015,010_y_f_n_a.png,I,z,423,4,1,1443.1000000014901,161256.5,8005,NNB,A,3
4,test,1,0.0,1-Back,1,m,Wed Oct 30 2024 13:26:10 GMT-0500 (Central Daylight Time),164432.5,043_m_f_n_a.png,I,m,710,5,1,1727.0,162705.5,8005,NNB,A,4
5,test,1,0.0,1-Back,1,m,Wed Oct 30 2024 13:26:10 GMT-0500 (Central Daylight Time),166181.8999999985,053_o_m_n_a.png,I,m,721,6,1,1743.6999999955297,164438.20000000298,8005,NNB,A,5
6,test,1,1.0,1-Back,1,z,Wed Oct 30 2024 13:26:10 GMT-0500 (Central Daylight Time),167781.3999999985,053_o_m_n_a.png,I,z,571,7,1,1593.0999999940395,166188.30000000447,8005,NNB,A,6
7,test,1,0.0,1-Back,1,m,Wed Oct 30 2024 13:26:10 GMT-0500 (Central Daylight Time),169313.8999999985,058_m_m_n_a.png,I,m,508,8,1,1526.5999999940395,167787.30000000447,8005,NNB,A,7
8,test,1,0.0,1-Back,1,m,Wed Oct 30 2024 13:26:10 GMT-0500 (Central Daylight Time),170897.0,047_o_f_n_a.png,I,m,559,9,1,1576.1000000014901,169320.8999999985,8005,NNB,A,8
9,test,1,0.0,1-Back,1,m,Wed Oct 30 2024 13:26:10 GMT-0500 (Central Daylight Time),172330.0,058_m_m_n_a.png,I,m,416,10,1,1427.1999999955297,170902.80000000447,8005,NNB,A,9
10,test,1,0.0,1-Back,1,m,Wed Oct 30 2024 13:26:10 GMT-0500 (Central Daylight Time),173895.8999999985,041_y_m_n_a.png,I,m,544,11,1,1560.2999999970198,172335.6000000015,8005,NNB,A,10
11,test,1,1.0,1-Back,1,z,Wed Oct 30 2024 13:26:10 GMT-0500 (Central Daylight Time),175279.0,041_y_m_n_a.png,I,z,353,12,1,1377.5,173901.5,8005,NNB,A,11
12,test,1,0.0,1-Back,1,m,Wed Oct 30 2024 13:26:10 GMT-0500 (Central Daylight Time),176728.5,044_o_f_n_a.png,I,m,426,13,1,1443.7999999970198,175284.70000000298,8005,NNB,A,12
13,test,1,1.0,1-Back,1,z,Wed Oct 30 2024 13:26:10 GMT-0500 (Central Daylight Time),178127.8999999985,044_o_f_n_a.png,I,z,377,14,1,1393.7999999970198,176734.1000000015,8005,NNB,A,13
14,test,1,0.0,1-Back,1,m,Wed Oct 30 2024 13:26:10 GMT-0500 (Central Daylight Time),179777.70000000298,008_y_m_n_a.png,I,m,617,15,1,1643.8000000044703,178133.8999999985,8005,NNB,A,14
15,test,1,0.0,1-Back,1,m,Wed Oct 30 2024 13:26:10 GMT-0500 (Central Daylight Time),181226.8999999985,050_m_f_n_a.png,I,m,424,16,1,1443.2999999970198,179783.6000000015,8005,NNB,A,15
16,test,1,0.0,1-Back,1,m,Wed Oct 30 2024 13:26:10 GMT-0500 (Central Daylight Time),182710.1000000015,046_o_m_n_a.png,I,m,462,17,1,1477.1000000014901,181233.0,8005,NNB,A,16
17,test,1,0.0,1-Back,1,m,Wed Oct 30 2024 13:26:10 GMT-0500 (Central Daylight Time),184159.5,050_m_f_n_a.png,I,m,418,18,1,1443.5,182716.0,8005,NNB,A,17
0,test,2,0.0,1-Back,,,Wed Oct 30 2024 13:26:10 GMT-0500 (Central Daylight Time),184159.5,058_m_m_n_a.png,I,space,1402,1,1,1443.5,182716.0,8005,NNB,A,0
1,test,2,0.0,1-Back,1,m,Wed Oct 30 2024 13:26:10 GMT-0500 (Central Daylight Time),189074.6000000015,043_m_f_n_a.png,I,m,466,2,1,1476.7000000029802,187597.8999999985,8005,NNB,A,1
2,test,2,1.0,1-Back,1,z,Wed Oct 30 2024 13:26:10 GMT-0500 (Central Daylight Time),190490.8999999985,043_m_f_n_a.png,I,z,390,3,1,1410.5999999940395,189080.30000000447,8005,NNB,A,2
3,test,2,0.0,1-Back,1,m,Wed Oct 30 2024 13:26:10 GMT-0500 (Central Daylight Time),191973.5,058_m_m_n_a.png,I,m,454,4,1,1476.5,190497.0,8005,NNB,A,3
4,test,2,0.0,1-Back,1,m,Wed Oct 30 2024 13:26:10 GMT-0500 (Central Daylight Time),193473.1000000015,041_y_m_n_a.png,I,m,475,5,1,1493.2000000029802,191979.8999999985,8005,NNB,A,4
5,test,2,0.0,1-Back,1,m,Wed Oct 30 2024 13:26:10 GMT-0500 (Central Daylight Time),194906.0,063_y_f_n_a.png,I,m,408,6,1,1427.1000000014901,193478.8999999985,8005,NNB,A,5
6,test,2,1.0,1-Back,1,z,Wed Oct 30 2024 13:26:10 GMT-0500 (Central Daylight Time),196306.0,063_y_f_n_a.png,I,z,375,7,1,1394.1999999955297,194911.80000000447,8005,NNB,A,6
7,test,2,0.0,1-Back,1,m,Wed Oct 30 2024 13:26:10 GMT-0500 (Central Daylight Time),197905.3999999985,041_y_m_n_a.png,I,m,576,8,1,1593.5999999940395,196311.80000000447,8005,NNB,A,7
8,test,2,0.0,1-Back,1,m,Wed Oct 30 2024 13:26:10 GMT-0500 (Central Daylight Time),199354.70000000298,044_o_f_n_a.png,I,m,423,9,1,1443.8000000044703,197910.8999999985,8005,NNB,A,8
9,test,2,0.0,1-Back,1,m,Wed Oct 30 2024 13:26:10 GMT-0500 (Central Daylight Time),200821.0,045_m_m_n_a.png,I,m,447,10,1,1460.2999999970198,199360.70000000298,8005,NNB,A,9
10,test,2,1.0,1-Back,1,z,Wed Oct 30 2024 13:26:10 GMT-0500 (Central Daylight Time),202187.1000000015,045_m_m_n_a.png,I,z,340,11,1,1360.2000000029802,200826.8999999985,8005,NNB,A,10
11,test,2,0.0,1-Back,1,m,Wed Oct 30 2024 13:26:10 GMT-0500 (Central Daylight Time),203944.70000000298,044_o_f_n_a.png,I,m,723,12,1,1751.7000000029802,202193.0,8005,NNB,A,11
12,test,2,0.0,1-Back,1,m,Wed Oct 30 2024 13:26:10 GMT-0500 (Central Daylight Time),205369.5,047_o_f_n_a.png,I,m,401,13,1,1419.0,203950.5,8005,NNB,A,12
13,test,2,0.0,1-Back,1,m,Wed Oct 30 2024 13:26:10 GMT-0500 (Central Daylight Time),206869.20000000298,053_o_m_n_a.png,I,m,480,14,1,1493.3999999985099,205375.80000000447,8005,NNB,A,13
14,test,2,0.0,1-Back,1,m,Wed Oct 30 2024 13:26:10 GMT-0500 (Central Daylight Time),208385.5,046_o_m_n_a.png,I,m,484,15,1,1510.5,206875.0,8005,NNB,A,14
15,test,2,1.0,1-Back,1,z,Wed Oct 30 2024 13:26:10 GMT-0500 (Central Daylight Time),209818.20000000298,046_o_m_n_a.png,I,z,416,16,1,1426.8000000044703,208391.3999999985,8005,NNB,A,15
16,test,2,0.0,1-Back,1,m,Wed Oct 30 2024 13:26:10 GMT-0500 (Central Daylight Time),211267.80000000447,008_y_m_n_a.png,I,m,431,17,1,1443.8000000044703,209824.0,8005,NNB,A,16
17,test,2,1.0,1-Back,1,z,Wed Oct 30 2024 13:26:10 GMT-0500 (Central Daylight Time),212817.3999999985,008_y_m_n_a.png,I,z,518,18,1,1543.8999999985099,211273.5,8005,NNB,A,17
0,test,3,1.0,1-Back,,,Wed Oct 30 2024 13:26:10 GMT-0500 (Central Daylight Time),212817.3999999985,010_y_f_n_a.png,I,space,1168,1,1,1543.8999999985099,211273.5,8005,NNB,A,0
1,test,3,0.0,1-Back,1,m,Wed Oct 30 2024 13:26:10 GMT-0500 (Central Daylight Time),218349.0,046_o_m_n_a.png,I,m,1262,2,1,2277.10000000149,216071.8999999985,8005,NNB,A,1
2,test,3,1.0,1-Back,1,z,Wed Oct 30 2024 13:26:10 GMT-0500 (Central Daylight Time),219931.6000000015,046_o_m_n_a.png,I,z,564,3,1,1574.6000000014901,218357.0,8005,NNB,A,2
3,test,3,0.0,1-Back,1,m,Wed Oct 30 2024 13:26:10 GMT-0500 (Central Daylight Time),221497.80000000447,050_m_f_n_a.png,I,m,542,4,1,1560.2000000029802,219937.6000000015,8005,NNB,A,3
4,test,3,1.0,1-Back,1,z,Wed Oct 30 2024 13:26:10 GMT-0500 (Central Daylight Time),222980.8999999985,050_m_f_n_a.png,I,z,456,5,1,1476.8999999985099,221504.0,8005,NNB,A,4
5,test,3,0.0,1-Back,1,m,Wed Oct 30 2024 13:26:10 GMT-0500 (Central Daylight Time),224430.1000000015,044_o_f_n_a.png,I,m,420,6,1,1443.1000000014901,222987.0,8005,NNB,A,5
6,test,3,0.0,1-Back,1,m,Wed Oct 30 2024 13:26:10 GMT-0500 (Central Daylight Time),225879.80000000447,041_y_m_n_a.png,I,m,419,7,1,1443.9000000059605,224435.8999999985,8005,NNB,A,6
7,test,3,0.0,1-Back,1,m,Wed Oct 30 2024 13:26:10 GMT-0500 (Central Daylight Time),227470.80000000447,044_o_f_n_a.png,I,m,574,8,1,1585.0,225885.80000000447,8005,NNB,A,7
8,test,3,0.0,1-Back,1,m,Wed Oct 30 2024 13:26:10 GMT-0500 (Central Daylight Time),229029.0,008_y_m_n_a.png,I,m,538,9,1,1551.7999999970198,227477.20000000298,8005,NNB,A,8
9,test,3,1.0,1-Back,1,z,Wed Oct 30 2024 13:26:10 GMT-0500 (Central Daylight Time),230394.80000000447,008_y_m_n_a.png,I,z,348,10,1,1360.6000000014901,229034.20000000298,8005,NNB,A,9
10,test,3,0.0,1-Back,1,m,Wed Oct 30 2024 13:26:10 GMT-0500 (Central Daylight Time),231927.8999999985,043_m_f_n_a.png,I,m,510,11,1,1526.8999999985099,230401.0,8005,NNB,A,10
11,test,3,0.0,1-Back,1,m,Wed Oct 30 2024 13:26:10 GMT-0500 (Central Daylight Time),233477.3999999985,063_y_f_n_a.png,I,m,521,12,1,1543.5999999940395,231933.80000000447,8005,NNB,A,11
12,test,3,1.0,1-Back,1,z,Wed Oct 30 2024 13:26:10 GMT-0500 (Central Daylight Time),235077.0,063_y_f_n_a.png,I,z,580,13,1,1593.7999999970198,233483.20000000298,8005,NNB,A,12
13,test,3,0.0,1-Back,1,m,Wed Oct 30 2024 13:26:10 GMT-0500 (Central Daylight Time),236576.70000000298,043_m_f_n_a.png,I,m,468,14,1,1493.8000000044703,235082.8999999985,8005,NNB,A,13
14,test,3,0.0,1-Back,1,m,Wed Oct 30 2024 13:26:10 GMT-0500 (Central Daylight Time),238009.3999999985,058_m_m_n_a.png,I,m,401,15,1,1426.8999999985099,236582.5,8005,NNB,A,14
15,test,3,1.0,1-Back,1,z,Wed Oct 30 2024 13:26:10 GMT-0500 (Central Daylight Time),239442.30000000447,058_m_m_n_a.png,I,z,416,16,1,1426.7000000029802,238015.6000000015,8005,NNB,A,15
16,test,3,0.0,1-Back,1,m,Wed Oct 30 2024 13:26:10 GMT-0500 (Central Daylight Time),241041.8999999985,047_o_f_n_a.png,I,m,567,17,1,1593.5,239448.3999999985,8005,NNB,A,16
17,test,3,1.0,1-Back,1,z,Wed Oct 30 2024 13:26:10 GMT-0500 (Central Daylight Time),242475.70000000298,047_o_f_n_a.png,I,z,416,18,1,1427.8999999985099,241047.80000000447,8005,NNB,A,17
0,test,4,1.0,1-Back,,,Wed Oct 30 2024 13:26:10 GMT-0500 (Central Daylight Time),242475.70000000298,050_m_f_n_a.png,I,space,2198,1,1,1427.8999999985099,241047.80000000447,8005,NNB,A,0
1,test,4,0.0,1-Back,1,m,Wed Oct 30 2024 13:26:10 GMT-0500 (Central Daylight Time),248173.0,046_o_m_n_a.png,I,m,455,2,1,1475.2999999970198,246697.70000000298,8005,NNB,A,1
2,test,4,0.0,1-Back,1,m,Wed Oct 30 2024 13:26:10 GMT-0500 (Central Daylight Time),249788.8999999985,050_m_f_n_a.png,I,m,596,3,1,1610.0999999940395,248178.80000000447,8005,NNB,A,2
3,test,4,0.0,1-Back,1,m,Wed Oct 30 2024 13:26:10 GMT-0500 (Central Daylight Time),251521.80000000447,044_o_f_n_a.png,I,m,655,4,1,1727.2000000029802,249794.6000000015,8005,NNB,A,3
4,test,4,1.0,1-Back,1,z,Wed Oct 30 2024 13:26:10 GMT-0500 (Central Daylight Time),252921.20000000298,044_o_f_n_a.png,I,z,374,5,1,1393.3000000044703,251527.8999999985,8005,NNB,A,4
5,test,4,0.0,1-Back,1,m,Wed Oct 30 2024 13:26:10 GMT-0500 (Central Daylight Time),254337.5,063_y_f_n_a.png,I,m,392,6,1,1410.6999999955297,252926.80000000447,8005,NNB,A,5
6,test,4,0.0,1-Back,1,m,Wed Oct 30 2024 13:26:10 GMT-0500 (Central Daylight Time),255903.70000000298,041_y_m_n_a.png,I,m,543,7,1,1560.1000000014901,254343.6000000015,8005,NNB,A,6
7,test,4,1.0,1-Back,1,z,Wed Oct 30 2024 13:26:10 GMT-0500 (Central Daylight Time),257353.30000000447,041_y_m_n_a.png,I,z,426,8,1,1443.6000000014901,255909.70000000298,8005,NNB,A,7
8,test,4,0.0,1-Back,1,m,Wed Oct 30 2024 13:26:10 GMT-0500 (Central Daylight Time),258786.3999999985,063_y_f_n_a.png,I,m,401,9,1,1426.8999999985099,257359.5,8005,NNB,A,8
9,test,4,0.0,1-Back,1,m,Wed Oct 30 2024 13:26:10 GMT-0500 (Central Daylight Time),260286.70000000298,045_m_m_n_a.png,I,m,479,10,1,1494.3000000044703,258792.3999999985,8005,NNB,A,9
10,test,4,1.0,1-Back,1,z,Wed Oct 30 2024 13:26:10 GMT-0500 (Central Daylight Time),262085.30000000447,045_m_m_n_a.png,I,z,771,11,1,1793.0,260292.30000000447,8005,NNB,A,10
11,test,4,0.0,1-Back,1,m,Wed Oct 30 2024 13:26:10 GMT-0500 (Central Daylight Time),263618.30000000447,047_o_f_n_a.png,I,m,500,12,1,1526.9000000059605,262091.3999999985,8005,NNB,A,11
12,test,4,0.0,1-Back,1,m,Wed Oct 30 2024 13:26:10 GMT-0500 (Central Daylight Time),265167.5,053_o_m_n_a.png,I,m,519,13,1,1543.1999999955297,263624.30000000447,8005,NNB,A,12
13,test,4,0.0,1-Back,1,m,Wed Oct 30 2024 13:26:10 GMT-0500 (Central Daylight Time),266833.6000000015,047_o_f_n_a.png,I,m,634,14,1,1659.2000000029802,265174.3999999985,8005,NNB,A,13
14,test,4,0.0,1-Back,1,m,Wed Oct 30 2024 13:26:10 GMT-0500 (Central Daylight Time),268333.0,010_y_f_n_a.png,I,m,472,15,1,1493.1999999955297,266839.80000000447,8005,NNB,A,14
15,test,4,1.0,1-Back,1,z,Wed Oct 30 2024 13:26:10 GMT-0500 (Central Daylight Time),269782.700000003,010_y_f_n_a.png,I,z,420,16,1,1443.8000000044703,268338.8999999985,8005,NNB,A,15
16,test,4,0.0,1-Back,1,m,Wed Oct 30 2024 13:26:10 GMT-0500 (Central Daylight Time),271348.8999999985,043_m_f_n_a.png,I,m,547,17,1,1560.2999999970198,269788.6000000015,8005,NNB,A,16
17,test,4,1.0,1-Back,1,z,Wed Oct 30 2024 13:26:10 GMT-0500 (Central Daylight Time),272898.3999999985,043_m_f_n_a.png,I,z,524,18,1,1543.3999999985099,271355.0,8005,NNB,A,17
0,test,5,1.0,1-Back,,,Wed Oct 30 2024 13:26:10 GMT-0500 (Central Daylight Time),272898.3999999985,053_o_m_n_a.png,I,space,1643,1,1,1543.3999999985099,271355.0,8005,NNB,A,0
1,test,5,1.0,1-Back,1,z,Wed Oct 30 2024 13:26:10 GMT-0500 (Central Daylight Time),277997.0,053_o_m_n_a.png,I,z,430,2,1,1442.5,276554.5,8005,NNB,A,1
2,test,5,0.0,1-Back,1,m,Wed Oct 30 2024 13:26:10 GMT-0500 (Central Daylight Time),279479.700000003,063_y_f_n_a.png,I,m,452,3,1,1476.7000000029802,278003.0,8005,NNB,A,2
3,test,5,0.0,1-Back,1,m,Wed Oct 30 2024 13:26:10 GMT-0500 (Central Daylight Time),280947.0,041_y_m_n_a.png,I,m,442,4,1,1461.1000000014901,279485.8999999985,8005,NNB,A,3
4,test,5,0.0,1-Back,1,m,Wed Oct 30 2024 13:26:10 GMT-0500 (Central Daylight Time),282395.5,063_y_f_n_a.png,I,m,424,5,1,1441.6000000014901,280953.8999999985,8005,NNB,A,4
5,test,5,0.0,1-Back,1,m,Wed Oct 30 2024 13:26:10 GMT-0500 (Central Daylight Time),283978.30000000447,058_m_m_n_a.png,I,m,566,6,1,1577.0,282401.30000000447,8005,NNB,A,5
6,test,5,1.0,1-Back,1,z,Wed Oct 30 2024 13:26:10 GMT-0500 (Central Daylight Time),285378.0,058_m_m_n_a.png,I,z,375,7,1,1393.6999999955297,283984.30000000447,8005,NNB,A,6
7,test,5,0.0,1-Back,1,m,Wed Oct 30 2024 13:26:10 GMT-0500 (Central Daylight Time),286927.5,010_y_f_n_a.png,I,m,527,8,1,1543.1999999955297,285384.30000000447,8005,NNB,A,7
8,test,5,0.0,1-Back,1,m,Wed Oct 30 2024 13:26:10 GMT-0500 (Central Daylight Time),288426.80000000447,008_y_m_n_a.png,I,m,482,9,1,1493.4000000059605,286933.3999999985,8005,NNB,A,8
9,test,5,0.0,1-Back,1,m,Wed Oct 30 2024 13:26:10 GMT-0500 (Central Daylight Time),290009.700000003,010_y_f_n_a.png,I,m,550,10,1,1576.8000000044703,288432.8999999985,8005,NNB,A,9
10,test,5,0.0,1-Back,1,m,Wed Oct 30 2024 13:26:10 GMT-0500 (Central Daylight Time),291526.0,047_o_f_n_a.png,I,m,488,11,1,1510.1000000014901,290015.8999999985,8005,NNB,A,10
11,test,5,1.0,1-Back,1,z,Wed Oct 30 2024 13:26:10 GMT-0500 (Central Daylight Time),292958.80000000447,047_o_f_n_a.png,I,z,404,12,1,1427.2000000029802,291531.6000000015,8005,NNB,A,11
12,test,5,0.0,1-Back,1,m,Wed Oct 30 2024 13:26:10 GMT-0500 (Central Daylight Time),294391.80000000447,046_o_m_n_a.png,I,m,411,13,1,1426.9000000059605,292964.8999999985,8005,NNB,A,12
13,test,5,0.0,1-Back,1,m,Wed Oct 30 2024 13:26:10 GMT-0500 (Central Daylight Time),295908.0,050_m_f_n_a.png,I,m,498,14,1,1510.3999999985099,294397.6000000015,8005,NNB,A,13
14,test,5,1.0,1-Back,1,z,Wed Oct 30 2024 13:26:10 GMT-0500 (Central Daylight Time),297357.30000000447,050_m_f_n_a.png,I,z,429,15,1,1443.0,295914.30000000447,8005,NNB,A,14
15,test,5,0.0,1-Back,1,m,Wed Oct 30 2024 13:26:10 GMT-0500 (Central Daylight Time),298906.80000000447,046_o_m_n_a.png,I,m,524,16,1,1543.0,297363.80000000447,8005,NNB,A,15
16,test,5,0.0,1-Back,1,m,Wed Oct 30 2024 13:26:10 GMT-0500 (Central Daylight Time),300339.8999999985,043_m_f_n_a.png,I,m,414,17,1,1427.0999999940395,298912.80000000447,8005,NNB,A,16
17,test,5,0.0,1-Back,1,m,Wed Oct 30 2024 13:26:10 GMT-0500 (Central Daylight Time),301822.5,045_m_m_n_a.png,I,m,461,18,1,1475.8999999985099,300346.6000000015,8005,NNB,A,17
0,prac,1,0.0,2-Back,,,Wed Oct 30 2024 13:26:10 GMT-0500 (Central Daylight Time),301822.5,008_y_m_n_a.png,I,space,11855,1,1,1475.8999999985099,300346.6000000015,8005,NNB,A,0
0,prac,1,0.0,2-Back,,,Wed Oct 30 2024 13:26:10 GMT-0500 (Central Daylight Time),301822.5,043_m_f_n_a.png,I,space,11855,2,1,1475.8999999985099,300346.6000000015,8005,NNB,A,0
1,prac,1,1.0,2-Back,1,m,Wed Oct 30 2024 13:26:10 GMT-0500 (Central Daylight Time),433514.8999999985,046_o_m_n_a.png,I,m,1608,3,1,2408.2999999970198,431106.6000000015,8005,NNB,A,1
2,prac,1,0.0,2-Back,1,m,Wed Oct 30 2024 13:26:10 GMT-0500 (Central Daylight Time),436297.5,047_o_f_n_a.png,I,m,1938,4,1,2775.39999999851,433522.1000000015,8005,NNB,A,2
3,prac,1,0.0,2-Back,1,z,Wed Oct 30 2024 13:26:10 GMT-0500 (Central Daylight Time),438663.30000000447,046_o_m_n_a.png,I,z,1576,5,1,2358.10000000149,436305.200000003,8005,NNB,A,3
4,prac,1,1.0,2-Back,1,z,Wed Oct 30 2024 13:26:10 GMT-0500 (Central Daylight Time),440845.700000003,047_o_f_n_a.png,I,z,1395,6,1,2175.39999999851,438670.30000000447,8005,NNB,A,4
5,prac,1,0.0,2-Back,1,m,Wed Oct 30 2024 13:26:10 GMT-0500 (Central Daylight Time),442811.700000003,045_m_m_n_a.png,I,m,1157,7,1,1958.7000000029802,440853.0,8005,NNB,A,5
6,prac,1,0.0,2-Back,1,m,Wed Oct 30 2024 13:26:10 GMT-0500 (Central Daylight Time),445077.80000000447,053_o_m_n_a.png,I,m,1453,8,1,2259.2000000029802,442818.6000000015,8005,NNB,A,6
7,prac,1,0.0,2-Back,1,m,Wed Oct 30 2024 13:26:10 GMT-0500 (Central Daylight Time),446760.700000003,010_y_f_n_a.png,I,m,840,9,1,1675.6000000014901,445085.1000000015,8005,NNB,A,7
8,prac,1,1.0,2-Back,1,z,Wed Oct 30 2024 13:26:10 GMT-0500 (Central Daylight Time),449026.3999999985,053_o_m_n_a.png,I,z,1489,10,1,2258.2999999970198,446768.1000000015,8005,NNB,A,8
9,prac,1,0.0,2-Back,1,m,Wed Oct 30 2024 13:26:10 GMT-0500 (Central Daylight Time),450576.0,063_y_f_n_a.png,I,m,737,11,1,1542.5,449033.5,8005,NNB,A,9
10,prac,1,0.0,2-Back,1,m,Wed Oct 30 2024 13:26:10 GMT-0500 (Central Daylight Time),452275.5,045_m_m_n_a.png,I,m,915,12,1,1692.3999999985099,450583.1000000015,8005,NNB,A,10
0,test,1,0.0,2-Back,,,Wed Oct 30 2024 13:26:10 GMT-0500 (Central Daylight Time),452275.5,041_y_m_n_a.png,I,space,8944,1,1,1692.3999999985099,450583.1000000015,8005,NNB,A,0
0,test,1,0.0,2-Back,,,Wed Oct 30 2024 13:26:10 GMT-0500 (Central Daylight Time),452275.5,041_y_m_n_a.png,I,space,8944,2,1,1692.3999999985099,450583.1000000015,8005,NNB,A,0
1,test,1,0.0,2-Back,1,m,Wed Oct 30 2024 13:26:10 GMT-0500 (Central Daylight Time),479816.8999999985,047_o_f_n_a.png,I,m,635,3,1,1660.0,478156.8999999985,8005,NNB,A,1
2,test,1,0.0,2-Back,1,m,Wed Oct 30 2024 13:26:10 GMT-0500 (Central Daylight Time),481883.0,058_m_m_n_a.png,I,m,1039,4,1,2059.7999999970198,479823.200000003,8005,NNB,A,2
3,test,1,1.0,2-Back,1,z,Wed Oct 30 2024 13:26:10 GMT-0500 (Central Daylight Time),483815.5,047_o_f_n_a.png,I,z,910,5,1,1926.6000000014901,481888.8999999985,8005,NNB,A,3
4,test,1,0.0,2-Back,1,m,Wed Oct 30 2024 13:26:10 GMT-0500 (Central Daylight Time),485316.30000000447,063_y_f_n_a.png,I,m,482,6,1,1494.4000000059605,483821.8999999985,8005,NNB,A,4
4,test,1,0.0,2-Back,0,m,Wed Oct 30 2024 13:26:10 GMT-0500 (Central Daylight Time),487214.3999999985,058_m_m_n_a.png,I,z,878,7,1,1892.0,485322.3999999985,8005,NNB,A,5
4,test,1,1.0,2-Back,0,z,Wed Oct 30 2024 13:26:10 GMT-0500 (Central Daylight Time),488830.5,063_y_f_n_a.png,I,m,595,8,1,1609.5,487221.0,8005,NNB,A,6
5,test,1,0.0,2-Back,1,m,Wed Oct 30 2024 13:26:10 GMT-0500 (Central Daylight Time),490663.5,008_y_m_n_a.png,I,m,811,9,1,1826.7999999970198,488836.700000003,8005,NNB,A,7
6,test,1,0.0,2-Back,1,m,Wed Oct 30 2024 13:26:10 GMT-0500 (Central Daylight Time),492612.8999999985,044_o_f_n_a.png,I,m,930,10,1,1943.5,490669.3999999985,8005,NNB,A,8
7,test,1,1.0,2-Back,1,z,Wed Oct 30 2024 13:26:10 GMT-0500 (Central Daylight Time),493995.80000000447,008_y_m_n_a.png,I,z,356,11,1,1376.7000000029802,492619.1000000015,8005,NNB,A,9
8,test,1,0.0,2-Back,1,m,Wed Oct 30 2024 13:26:10 GMT-0500 (Central Daylight Time),495495.30000000447,043_m_f_n_a.png,I,m,478,12,1,1493.0,494002.30000000447,8005,NNB,A,10
8,test,1,0.0,2-Back,0,m,Wed Oct 30 2024 13:26:10 GMT-0500 (Central Daylight Time),498527.80000000447,043_m_f_n_a.png,I,None,2016,13,1,3026.0,495501.80000000447,8005,NNB,A,11
9,test,1,0.0,2-Back,1,m,Wed Oct 30 2024 13:26:10 GMT-0500 (Central Daylight Time),500310.6000000015,046_o_m_n_a.png,I,m,754,14,1,1776.2000000029802,498534.3999999985,8005,NNB,A,12
10,test,1,0.0,2-Back,1,m,Wed Oct 30 2024 13:26:10 GMT-0500 (Central Daylight Time),502943.0,044_o_f_n_a.png,I,m,1611,15,1,2625.89999999851,500317.1000000015,8005,NNB,A,13
11,test,1,1.0,2-Back,1,z,Wed Oct 30 2024 13:26:10 GMT-0500 (Central Daylight Time),504375.700000003,046_o_m_n_a.png,I,z,402,16,1,1426.3999999985099,502949.30000000447,8005,NNB,A,14
12,test,1,0.0,2-Back,1,m,Wed Oct 30 2024 13:26:10 GMT-0500 (Central Daylight Time),506342.1000000015,050_m_f_n_a.png,I,m,945,17,1,1960.6000000014901,504381.5,8005,NNB,A,15
13,test,1,0.0,2-Back,1,m,Wed Oct 30 2024 13:26:10 GMT-0500 (Central Daylight Time),509291.200000003,045_m_m_n_a.png,I,m,1924,18,1,2942.7000000029802,506348.5,8005,NNB,A,16
0,test,2,0.0,2-Back,,,Wed Oct 30 2024 13:26:10 GMT-0500 (Central Daylight Time),509291.200000003,045_m_m_n_a.png,I,space,2054,1,1,2942.7000000029802,506348.5,8005,NNB,A,0
0,test,2,0.0,2-Back,,,Wed Oct 30 2024 13:26:10 GMT-0500 (Central Daylight Time),509291.200000003,010_y_f_n_a.png,I,space,2054,2,1,2942.7000000029802,506348.5,8005,NNB,A,0
1,test,2,1.0,2-Back,1,z,Wed Oct 30 2024 13:26:10 GMT-0500 (Central Daylight Time),518488.200000003,045_m_m_n_a.png,I,z,1002,3,1,2026.8000000044703,516461.3999999985,8005,NNB,A,1
2,test,2,0.0,2-Back,1,m,Wed Oct 30 2024 13:26:10 GMT-0500 (Central Daylight Time),520903.6000000015,050_m_f_n_a.png,I,m,1394,4,1,2408.89999999851,518494.700000003,8005,NNB,A,2
2,test,2,0.0,2-Back,0,m,Wed Oct 30 2024 13:26:10 GMT-0500 (Central Daylight Time),523270.0,010_y_f_n_a.png,I,z,1345,5,1,2360.10000000149,520909.8999999985,8005,NNB,A,3
3,test,2,0.0,2-Back,1,m,Wed Oct 30 2024 13:26:10 GMT-0500 (Central Daylight Time),525102.6000000015,046_o_m_n_a.png,I,m,803,6,1,1826.0,523276.6000000015,8005,NNB,A,4
4,test,2,0.0,2-Back,1,m,Wed Oct 30 2024 13:26:10 GMT-0500 (Central Daylight Time),527035.200000003,063_y_f_n_a.png,I,m,914,7,1,1926.3999999985099,525108.8000000045,8005,NNB,A,5
5,test,2,1.0,2-Back,1,z,Wed Oct 30 2024 13:26:10 GMT-0500 (Central Daylight Time),528568.0,046_o_m_n_a.png,I,z,502,8,1,1526.3999999985099,527041.6000000015,8005,NNB,A,6
6,test,2,0.0,2-Back,1,m,Wed Oct 30 2024 13:26:10 GMT-0500 (Central Daylight Time),530317.700000003,008_y_m_n_a.png,I,m,721,9,1,1743.3000000044703,528574.3999999985,8005,NNB,A,7
6,test,2,0.0,2-Back,0,m,Wed Oct 30 2024 13:26:10 GMT-0500 (Central Daylight Time),533395.1000000015,008_y_m_n_a.png,I,None,2060,10,1,3071.2999999970198,530323.8000000045,8005,NNB,A,8
7,test,2,0.0,2-Back,1,m,Wed Oct 30 2024 13:26:10 GMT-0500 (Central Daylight Time),534449.700000003,043_m_f_n_a.png,I,m,25,11,1,1047.3000000044703,533402.3999999985,8005,NNB,A,9
8,test,2,0.0,2-Back,1,m,Wed Oct 30 2024 13:26:10 GMT-0500 (Central Daylight Time),536432.3000000045,010_y_f_n_a.png,I,m,959,12,1,1976.0,534456.3000000045,8005,NNB,A,10
9,test,2,1.0,2-Back,1,z,Wed Oct 30 2024 13:26:10 GMT-0500 (Central Daylight Time),538082.5,043_m_f_n_a.png,I,z,633,13,1,1644.2999999970198,536438.200000003,8005,NNB,A,11
10,test,2,0.0,2-Back,1,m,Wed Oct 30 2024 13:26:10 GMT-0500 (Central Daylight Time),540130.8999999985,053_o_m_n_a.png,I,m,1032,14,1,2042.5,538088.3999999985,8005,NNB,A,12
11,test,2,0.0,2-Back,1,m,Wed Oct 30 2024 13:26:10 GMT-0500 (Central Daylight Time),542414.0,053_o_m_n_a.png,I,m,1262,15,1,2276.5,540137.5,8005,NNB,A,13
12,test,2,0.0,2-Back,1,m,Wed Oct 30 2024 13:26:10 GMT-0500 (Central Daylight Time),544163.1000000015,044_o_f_n_a.png,I,m,723,16,1,1743.1000000014901,542420.0,8005,NNB,A,14
13,test,2,0.0,2-Back,1,m,Wed Oct 30 2024 13:26:10 GMT-0500 (Central Daylight Time),545996.1000000015,058_m_m_n_a.png,I,m,814,17,1,1826.6000000014901,544169.5,8005,NNB,A,15
14,test,2,1.0,2-Back,1,z,Wed Oct 30 2024 13:26:10 GMT-0500 (Central Daylight Time),547429.200000003,044_o_f_n_a.png,I,z,405,18,1,1426.8999999985099,546002.3000000045,8005,NNB,A,16
0,test,3,1.0,2-Back,,,Wed Oct 30 2024 13:26:10 GMT-0500 (Central Daylight Time),547429.200000003,041_y_m_n_a.png,I,space,1812,1,1,1426.8999999985099,546002.3000000045,8005,NNB,A,0
0,test,3,1.0,2-Back,,,Wed Oct 30 2024 13:26:10 GMT-0500 (Central Daylight Time),547429.200000003,041_y_m_n_a.png,I,space,1812,2,1,1426.8999999985099,546002.3000000045,8005,NNB,A,0
1,test,3,0.0,2-Back,1,m,Wed Oct 30 2024 13:26:10 GMT-0500 (Central Daylight Time),555926.200000003,044_o_f_n_a.png,I,m,595,3,1,1609.8999999985099,554316.3000000045,8005,NNB,A,1
2,test,3,0.0,2-Back,1,m,Wed Oct 30 2024 13:26:10 GMT-0500 (Central Daylight Time),557643.700000003,045_m_m_n_a.png,I,m,691,4,1,1711.3000000044703,555932.3999999985,8005,NNB,A,2
3,test,3,1.0,2-Back,1,z,Wed Oct 30 2024 13:26:10 GMT-0500 (Central Daylight Time),559058.5,044_o_f_n_a.png,I,z,383,5,1,1409.0,557649.5,8005,NNB,A,3
4,test,3,0.0,2-Back,1,m,Wed Oct 30 2024 13:26:10 GMT-0500 (Central Daylight Time),560858.0,008_y_m_n_a.png,I,m,775,6,1,1792.8999999985099,559065.1000000015,8005,NNB,A,4
4,test,3,0.0,2-Back,0,m,Wed Oct 30 2024 13:26:10 GMT-0500 (Central Daylight Time),563007.3999999985,045_m_m_n_a.png,I,z,1127,7,1,2143.0999999940395,560864.3000000045,8005,NNB,A,5
5,test,3,1.0,2-Back,1,z,Wed Oct 30 2024 13:26:10 GMT-0500 (Central Daylight Time),564706.8000000045,008_y_m_n_a.png,I,z,681,8,1,1692.4000000059605,563014.3999999985,8005,NNB,A,6
6,test,3,0.0,2-Back,1,m,Wed Oct 30 2024 13:26:10 GMT-0500 (Central Daylight Time),566306.5,010_y_f_n_a.png,I,m,583,9,1,1593.3999999985099,564713.1000000015,8005,NNB,A,7
7,test,3,0.0,2-Back,1,m,Wed Oct 30 2024 13:26:10 GMT-0500 (Central Daylight Time),567956.0,058_m_m_n_a.png,I,m,623,10,1,1643.1000000014901,566312.8999999985,8005,NNB,A,8
8,test,3,1.0,2-Back,1,z,Wed Oct 30 2024 13:26:10 GMT-0500 (Central Daylight Time),569406.700000003,010_y_f_n_a.png,I,z,429,11,1,1444.3000000044703,567962.3999999985,8005,NNB,A,9
9,test,3,1.0,2-Back,1,z,Wed Oct 30 2024 13:26:10 GMT-0500 (Central Daylight Time),570938.3000000045,058_m_m_n_a.png,I,z,516,12,1,1525.8000000044703,569412.5,8005,NNB,A,10
10,test,3,0.0,2-Back,1,m,Wed Oct 30 2024 13:26:10 GMT-0500 (Central Daylight Time),572737.5,044_o_f_n_a.png,I,m,774,13,1,1793.0,570944.5,8005,NNB,A,11
11,test,3,0.0,2-Back,1,m,Wed Oct 30 2024 13:26:10 GMT-0500 (Central Daylight Time),574903.6000000015,050_m_f_n_a.png,I,m,1135,14,1,2160.10000000149,572743.5,8005,NNB,A,12
12,test,3,0.0,2-Back,1,m,Wed Oct 30 2024 13:26:10 GMT-0500 (Central Daylight Time),576403.3000000045,046_o_m_n_a.png,I,m,474,15,1,1493.8000000044703,574909.5,8005,NNB,A,13
13,test,3,1.0,2-Back,1,z,Wed Oct 30 2024 13:26:10 GMT-0500 (Central Daylight Time),577786.200000003,050_m_f_n_a.png,I,z,350,16,1,1377.0,576409.200000003,8005,NNB,A,14
14,test,3,0.0,2-Back,1,m,Wed Oct 30 2024 13:26:10 GMT-0500 (Central Daylight Time),579469.1000000015,047_o_f_n_a.png,I,m,663,17,1,1676.3999999985099,577792.700000003,8005,NNB,A,15
15,test,3,0.0,2-Back,1,m,Wed Oct 30 2024 13:26:10 GMT-0500 (Central Daylight Time),582218.3000000045,047_o_f_n_a.png,I,m,1725,18,1,2742.5,579475.8000000045,8005,NNB,A,16
0,test,4,0.0,2-Back,,,Wed Oct 30 2024 13:26:10 GMT-0500 (Central Daylight Time),582218.3000000045,053_o_m_n_a.png,I,space,1743,1,1,2742.5,579475.8000000045,8005,NNB,A,0
0,test,4,0.0,2-Back,,,Wed Oct 30 2024 13:26:10 GMT-0500 (Central Daylight Time),582218.3000000045,063_y_f_n_a.png,I,space,1743,2,1,2742.5,579475.8000000045,8005,NNB,A,0
1,test,4,1.0,2-Back,1,z,Wed Oct 30 2024 13:26:10 GMT-0500 (Central Daylight Time),590498.700000003,053_o_m_n_a.png,I,z,415,3,1,1426.6000000014901,589072.1000000015,8005,NNB,A,1
2,test,4,1.0,2-Back,1,z,Wed Oct 30 2024 13:26:10 GMT-0500 (Central Daylight Time),591999.3999999985,063_y_f_n_a.png,I,z,471,4,1,1494.5,590504.8999999985,8005,NNB,A,2
3,test,4,0.0,2-Back,1,m,Wed Oct 30 2024 13:26:10 GMT-0500 (Central Daylight Time),593847.8000000045,044_o_f_n_a.png,I,m,827,5,1,1842.3000000044703,592005.5,8005,NNB,A,3
4,test,4,0.0,2-Back,1,m,Wed Oct 30 2024 13:26:10 GMT-0500 (Central Daylight Time),596613.5,044_o_f_n_a.png,I,m,1737,6,1,2759.10000000149,593854.3999999985,8005,NNB,A,4
5,test,4,0.0,2-Back,1,m,Wed Oct 30 2024 13:26:10 GMT-0500 (Central Daylight Time),598296.3000000045,043_m_f_n_a.png,I,m,652,7,1,1676.5,596619.8000000045,8005,NNB,A,5
6,test,4,0.0,2-Back,1,m,Wed Oct 30 2024 13:26:10 GMT-0500 (Central Daylight Time),600145.6000000015,008_y_m_n_a.png,I,m,817,8,1,1842.2999999970198,598303.3000000045,8005,NNB,A,6
7,test,4,1.0,2-Back,1,z,Wed Oct 30 2024 13:26:10 GMT-0500 (Central Daylight Time),601545.200000003,043_m_f_n_a.png,I,z,376,9,1,1393.3999999985099,600151.8000000045,8005,NNB,A,7
8,test,4,0.0,2-Back,1,m,Wed Oct 30 2024 13:26:10 GMT-0500 (Central Daylight Time),603144.700000003,058_m_m_n_a.png,I,m,576,10,1,1593.6000000014901,601551.1000000015,8005,NNB,A,8
8,test,4,0.0,2-Back,0,m,Wed Oct 30 2024 13:26:10 GMT-0500 (Central Daylight Time),604777.6000000015,008_y_m_n_a.png,I,z,608,11,1,1626.5,603151.1000000015,8005,NNB,A,9
9,test,4,0.0,2-Back,1,m,Wed Oct 30 2024 13:26:10 GMT-0500 (Central Daylight Time),606793.6000000015,047_o_f_n_a.png,I,m,984,12,1,2010.1000000014901,604783.5,8005,NNB,A,10
9,test,4,0.0,2-Back,0,m,Wed Oct 30 2024 13:26:10 GMT-0500 (Central Daylight Time),608576.5,041_y_m_n_a.png,I,z,760,13,1,1777.0,606799.5,8005,NNB,A,11
10,test,4,1.0,2-Back,1,z,Wed Oct 30 2024 13:26:10 GMT-0500 (Central Daylight Time),610159.3999999985,047_o_f_n_a.png,I,z,553,14,1,1576.3999999985099,608583.0,8005,NNB,A,12
10,test,4,1.0,2-Back,0,z,Wed Oct 30 2024 13:26:10 GMT-0500 (Central Daylight Time),612076.3999999985,041_y_m_n_a.png,I,m,899,15,1,1911.0999999940395,610165.3000000045,8005,NNB,A,13
11,test,4,0.0,2-Back,1,m,Wed Oct 30 2024 13:26:10 GMT-0500 (Central Daylight Time),613974.8000000045,045_m_m_n_a.png,I,m,870,16,1,1892.2000000029802,612082.6000000015,8005,NNB,A,14
12,test,4,0.0,2-Back,1,m,Wed Oct 30 2024 13:26:10 GMT-0500 (Central Daylight Time),615624.5,050_m_f_n_a.png,I,m,619,17,1,1643.5,613981.0,8005,NNB,A,15
13,test,4,1.0,2-Back,1,z,Wed Oct 30 2024 13:26:10 GMT-0500 (Central Daylight Time),616990.5,045_m_m_n_a.png,I,z,337,18,1,1359.5,615631.0,8005,NNB,A,16
0,test,5,1.0,2-Back,,,Wed Oct 30 2024 13:26:10 GMT-0500 (Central Daylight Time),616990.5,041_y_m_n_a.png,I,space,1483,1,1,1359.5,615631.0,8005,NNB,A,0
0,test,5,1.0,2-Back,,,Wed Oct 30 2024 13:26:10 GMT-0500 (Central Daylight Time),616990.5,050_m_f_n_a.png,I,space,1483,2,1,1359.5,615631.0,8005,NNB,A,0
1,test,5,1.0,2-Back,1,z,Wed Oct 30 2024 13:26:10 GMT-0500 (Central Daylight Time),624988.1000000015,041_y_m_n_a.png,I,z,431,3,1,1443.5,623544.6000000015,8005,NNB,A,1
2,test,5,1.0,2-Back,1,z,Wed Oct 30 2024 13:26:10 GMT-0500 (Central Daylight Time),626387.5,050_m_f_n_a.png,I,z,381,4,1,1393.1000000014901,624994.3999999985,8005,NNB,A,2
3,test,5,0.0,2-Back,1,m,Wed Oct 30 2024 13:26:10 GMT-0500 (Central Daylight Time),628120.3000000045,047_o_f_n_a.png,I,m,591,5,1,1726.3000000044703,626394.0,8005,NNB,A,3
4,test,5,0.0,2-Back,1,m,Wed Oct 30 2024 13:26:10 GMT-0500 (Central Daylight Time),630669.5,041_y_m_n_a.png,I,m,1521,6,1,2543.1999999955297,628126.3000000045,8005,NNB,A,4
5,test,5,0.0,2-Back,1,m,Wed Oct 30 2024 13:26:10 GMT-0500 (Central Daylight Time),632552.3000000045,010_y_f_n_a.png,I,m,852,7,1,1876.2000000029802,630676.1000000015,8005,NNB,A,5
6,test,5,0.0,2-Back,1,m,Wed Oct 30 2024 13:26:10 GMT-0500 (Central Daylight Time),634451.8000000045,047_o_f_n_a.png,I,m,881,8,1,1892.5,632559.3000000045,8005,NNB,A,6
7,test,5,1.0,2-Back,1,z,Wed Oct 30 2024 13:26:10 GMT-0500 (Central Daylight Time),636134.3000000045,010_y_f_n_a.png,I,z,662,9,1,1676.1000000014901,634458.200000003,8005,NNB,A,7
8,test,5,0.0,2-Back,1,m,Wed Oct 30 2024 13:26:10 GMT-0500 (Central Daylight Time),637950.5,046_o_m_n_a.png,I,m,795,10,1,1809.7999999970198,636140.700000003,8005,NNB,A,8
9,test,5,0.0,2-Back,1,m,Wed Oct 30 2024 13:26:10 GMT-0500 (Central Daylight Time),639950.0,043_m_f_n_a.png,I,m,979,11,1,1993.0,637957.0,8005,NNB,A,9
10,test,5,0.0,2-Back,1,m,Wed Oct 30 2024 13:26:10 GMT-0500 (Central Daylight Time),641649.3000000045,058_m_m_n_a.png,I,m,676,12,1,1693.1000000014901,639956.200000003,8005,NNB,A,10
11,test,5,0.0,2-Back,1,m,Wed Oct 30 2024 13:26:10 GMT-0500 (Central Daylight Time),643882.3000000045,046_o_m_n_a.png,I,m,1200,13,1,2226.4000000059605,641655.8999999985,8005,NNB,A,11
12,test,5,1.0,2-Back,1,z,Wed Oct 30 2024 13:26:10 GMT-0500 (Central Daylight Time),645314.700000003,058_m_m_n_a.png,I,z,415,14,1,1426.1000000014901,643888.6000000015,8005,NNB,A,12
13,test,5,0.0,2-Back,1,m,Wed Oct 30 2024 13:26:10 GMT-0500 (Central Daylight Time),647064.3999999985,063_y_f_n_a.png,I,m,718,15,1,1743.2999999970198,645321.1000000015,8005,NNB,A,13
14,test,5,0.0,2-Back,1,m,Wed Oct 30 2024 13:26:10 GMT-0500 (Central Daylight Time),649397.200000003,053_o_m_n_a.png,I,m,1305,16,1,2326.7000000029802,647070.5,8005,NNB,A,14
15,test,5,0.0,2-Back,1,m,Wed Oct 30 2024 13:26:10 GMT-0500 (Central Daylight Time),651513.1000000015,043_m_f_n_a.png,I,m,1084,17,1,2110.10000000149,649403.0,8005,NNB,A,15
16,test,5,1.0,2-Back,1,z,Wed Oct 30 2024 13:26:10 GMT-0500 (Central Daylight Time),653062.700000003,053_o_m_n_a.png,I,z,520,18,1,1543.6000000014901,651519.1000000015,8005,NNB,A,16
